"success","timeout","failed_images","failed_audio","failed_video","trial_type","trial_index","time_elapsed","internal_node_id","subject_id","study_id","session_id","rt","stimulus","response","correct","locations","target_present","set_size","task","correct_response","target","foilCM","setSizeCM","searchCondition"
"true","false","[]","[]","[]","preload","0","400300","0.0-0.0","5f2dc04ae81ec50f0b8ea40f","619531dcf66c91622fa1b861","6195999b93c099a67b34744f","","","","","","","","","","","","",""
"true","","","","","fullscreen","1","498125","0.0-1.0","5f2dc04ae81ec50f0b8ea40f","619531dcf66c91622fa1b861","6195999b93c099a67b34744f","","","","","","","","","","","","",""
"","","","","","html-keyboard-response","2","510210","0.0-2.0","5f2dc04ae81ec50f0b8ea40f","619531dcf66c91622fa1b861","6195999b93c099a67b34744f","12083.100000023842","What a beautiful Wednesday to do some awesome science! </p> <p>  </p><p> </p>
    By completing this survey or questionnaire, you are consenting to be in this research study. </p>
    Your participation is voluntary and you can stop at any time.
    <p> [Press any key to continue.] </p>
    
    "," ","","","","","","","","","",""
"","","","","","video-keyboard-response","3","552243","0.0-3.0","5f2dc04ae81ec50f0b8ea40f","619531dcf66c91622fa1b861","6195999b93c099a67b34744f","42027.299999952316","[""video/TaskInstructions.mp4""]"," ","","","","","","","","","",""
"","","","","","html-keyboard-response","4","556641","0.0-4.0","5f2dc04ae81ec50f0b8ea40f","619531dcf66c91622fa1b861","6195999b93c099a67b34744f","4396.899999976158","
    <p>First, we're going to do a few practice trials to make sure you understand the task. You will recieve feedback on each trial. </p>
    <p>[Press any key to begin the familiarization phase.]</p>
    "," ","","","","","","","","","",""
"","","","","","visual-search-circle","5","560327","0.0-5.0-0.0","5f2dc04ae81ec50f0b8ea40f","619531dcf66c91622fa1b861","6195999b93c099a67b34744f","2625.7000000476837","","d","true","[[341,597],[597,258],[258,2],[2,341]]","true","4","training","d","","","",""
"","","","","","html-keyboard-response","6","563029","0.0-6.0","5f2dc04ae81ec50f0b8ea40f","619531dcf66c91622fa1b861","6195999b93c099a67b34744f","2701"," <div style='float: center; '><img src='img/feedbackRight.png'></img> </div> "," ","","","","","","","","","",""
"","","","","","visual-search-circle","7","566058","0.0-7.0-0.0","5f2dc04ae81ec50f0b8ea40f","619531dcf66c91622fa1b861","6195999b93c099a67b34744f","2021.8999999761581","","s","true","[[23,417],[417,576],[576,182],[182,23]]","false","4","training","s","","","",""
"","","","","","html-keyboard-response","8","568053","0.0-8.0","5f2dc04ae81ec50f0b8ea40f","619531dcf66c91622fa1b861","6195999b93c099a67b34744f","1992.6000000238419"," <div style='float: center; '><img src='img/feedbackRight.png'></img> </div> "," ","","","","","","","","","",""
"","","","","","visual-search-circle","9","572588","0.0-9.0-0.0","5f2dc04ae81ec50f0b8ea40f","619531dcf66c91622fa1b861","6195999b93c099a67b34744f","3523.9000000953674","","s","true","[[25,177],[57,476],[331,598],[574,422],[542,123],[268,1]]","false","6","training","s","","","",""
"","","","","","html-keyboard-response","10","574175","0.0-10.0","5f2dc04ae81ec50f0b8ea40f","619531dcf66c91622fa1b861","6195999b93c099a67b34744f","1584.5"," <div style='float: center; '><img src='img/feedbackRight.png'></img> </div> "," ","","","","","","","","","",""
"","","","","","visual-search-circle","11","577355","0.0-11.0-0.0","5f2dc04ae81ec50f0b8ea40f","619531dcf66c91622fa1b861","6195999b93c099a67b34744f","2167.3000000715256","","d","true","[[454,42],[227,8],[42,145],[8,372],[145,557],[372,591],[557,454],[591,227]]","true","8","training","d","","","",""
"","","","","","html-keyboard-response","12","579424","0.0-12.0","5f2dc04ae81ec50f0b8ea40f","619531dcf66c91622fa1b861","6195999b93c099a67b34744f","2067.100000023842"," <div style='float: center; '><img src='img/feedbackRight.png'></img> </div> "," ","","","","","","","","","",""
"","","","","","video-keyboard-response","13","590922","0.0-13.0","5f2dc04ae81ec50f0b8ea40f","619531dcf66c91622fa1b861","6195999b93c099a67b34744f","11494.800000071526","[""video/endTraining.mp4""]"," ","","","","","","","","","",""
"","","","","","html-keyboard-response","14","590925","0.0-14.0-0.0-0.0","5f2dc04ae81ec50f0b8ea40f","619531dcf66c91622fa1b861","6195999b93c099a67b34744f","null","","null","","","","","main_T1_ITI","","","","",""
"","","","","","visual-search-circle","15","593951","0.0-14.0-0.0-1.0","5f2dc04ae81ec50f0b8ea40f","619531dcf66c91622fa1b861","6195999b93c099a67b34744f","2017.5","","s","true","[[14,392],[392,585],[585,207],[207,14]]","false","4","main_T2_Trial","s","img/Fire_Up_Target.gif","[""img/Fire_Down_Distractor.gif"",""img/Fire_Down_Distractor.gif"",""img/Fire_Down_Distractor.gif"",""img/Fire_Down_Distractor.gif"",""img/Fire_Down_Distractor.gif"",""img/Fire_Down_Distractor.gif"",""img/Fire_Down_Distractor.gif"",""img/Fire_Down_Distractor.gif"",""img/Fire_Down_Distractor.gif"",""img/Fire_Down_Distractor.gif"",""img/Fire_Down_Distractor.gif"",""img/Fire_Down_Distractor.gif""]","4","targetUp_distractorsDown"
"","","","","","html-keyboard-response","16","593955","0.0-14.0-0.0-0.1","5f2dc04ae81ec50f0b8ea40f","619531dcf66c91622fa1b861","6195999b93c099a67b34744f","null","","null","","","","","main_T1_ITI","","","","",""
"","","","","","visual-search-circle","17","597199","0.0-14.0-0.0-1.1","5f2dc04ae81ec50f0b8ea40f","619531dcf66c91622fa1b861","6195999b93c099a67b34744f","2234.7999999523163","","s","true","[[123,57],[14,392],[299,600],[585,392],[476,57]]","false","5","main_T2_Trial","s","img/Fire_Down_Target.gif","[""img/Fire_Up_Distractor.gif"",""img/Fire_Up_Distractor.gif"",""img/Fire_Up_Distractor.gif"",""img/Fire_Up_Distractor.gif"",""img/Fire_Up_Distractor.gif"",""img/Fire_Up_Distractor.gif"",""img/Fire_Up_Distractor.gif"",""img/Fire_Up_Distractor.gif"",""img/Fire_Up_Distractor.gif"",""img/Fire_Up_Distractor.gif"",""img/Fire_Up_Distractor.gif"",""img/Fire_Up_Distractor.gif""]","5","targetDown_distractorsUp"
"","","","","","html-keyboard-response","18","597222","0.0-14.0-0.0-0.2","5f2dc04ae81ec50f0b8ea40f","619531dcf66c91622fa1b861","6195999b93c099a67b34744f","null","","null","","","","","main_T1_ITI","","","","",""
"","","","","","visual-search-circle","19","600580","0.0-14.0-0.0-1.2","5f2dc04ae81ec50f0b8ea40f","619531dcf66c91622fa1b861","6195999b93c099a67b34744f","2348.600000023842","","d","true","[[299,600],[585,392],[476,57],[123,57],[14,392]]","true","5","main_T2_Trial","d","img/Fire_Up_Target.gif","[""img/Fire_Down_Distractor.gif"",""img/Fire_Down_Distractor.gif"",""img/Fire_Down_Distractor.gif"",""img/Fire_Down_Distractor.gif"",""img/Fire_Down_Distractor.gif"",""img/Fire_Down_Distractor.gif"",""img/Fire_Down_Distractor.gif"",""img/Fire_Down_Distractor.gif"",""img/Fire_Down_Distractor.gif"",""img/Fire_Down_Distractor.gif"",""img/Fire_Down_Distractor.gif"",""img/Fire_Down_Distractor.gif""]","5","targetUp_distractorsDown"
"","","","","","html-keyboard-response","20","600609","0.0-14.0-0.0-0.3","5f2dc04ae81ec50f0b8ea40f","619531dcf66c91622fa1b861","6195999b93c099a67b34744f","null","","null","","","","","main_T1_ITI","","","","",""
"","","","","","visual-search-circle","21","603140","0.0-14.0-0.0-1.3","5f2dc04ae81ec50f0b8ea40f","619531dcf66c91622fa1b861","6195999b93c099a67b34744f","1524.2000000476837","","d","true","[[299,600],[600,300],[300,0],[0,299]]","true","4","main_T2_Trial","d","img/Fire_Up_Target.gif","[""img/Fire_Down_Distractor.gif"",""img/Fire_Down_Distractor.gif"",""img/Fire_Down_Distractor.gif"",""img/Fire_Down_Distractor.gif"",""img/Fire_Down_Distractor.gif"",""img/Fire_Down_Distractor.gif"",""img/Fire_Down_Distractor.gif"",""img/Fire_Down_Distractor.gif"",""img/Fire_Down_Distractor.gif"",""img/Fire_Down_Distractor.gif"",""img/Fire_Down_Distractor.gif"",""img/Fire_Down_Distractor.gif""]","4","targetUp_distractorsDown"
"","","","","","html-keyboard-response","22","603157","0.0-14.0-0.0-0.4","5f2dc04ae81ec50f0b8ea40f","619531dcf66c91622fa1b861","6195999b93c099a67b34744f","null","","null","","","","","main_T1_ITI","","","","",""
"","","","","","visual-search-circle","23","606757","0.0-14.0-0.0-1.4","5f2dc04ae81ec50f0b8ea40f","619531dcf66c91622fa1b861","6195999b93c099a67b34744f","2587.399999976158","","s","true","[[387,586],[578,410],[560,150],[345,3],[96,79],[0,321],[130,547]]","false","7","main_T2_Trial","s","img/Fire_Down_Target.gif","[""img/Fire_Up_Distractor.gif"",""img/Fire_Up_Distractor.gif"",""img/Fire_Up_Distractor.gif"",""img/Fire_Up_Distractor.gif"",""img/Fire_Up_Distractor.gif"",""img/Fire_Up_Distractor.gif"",""img/Fire_Up_Distractor.gif"",""img/Fire_Up_Distractor.gif"",""img/Fire_Up_Distractor.gif"",""img/Fire_Up_Distractor.gif"",""img/Fire_Up_Distractor.gif"",""img/Fire_Up_Distractor.gif""]","7","targetDown_distractorsUp"
"","","","","","html-keyboard-response","24","606782","0.0-14.0-0.0-0.5","5f2dc04ae81ec50f0b8ea40f","619531dcf66c91622fa1b861","6195999b93c099a67b34744f","null","","null","","","","","main_T1_ITI","","","","",""
"","","","","","visual-search-circle","25","609160","0.0-14.0-0.0-1.5","5f2dc04ae81ec50f0b8ea40f","619531dcf66c91622fa1b861","6195999b93c099a67b34744f","1366.5999999046326","","d","true","[[372,8],[117,61],[0,294],[108,530],[360,593],[567,435],[572,175]]","true","7","main_T2_Trial","d","img/Fire_Down_Target.gif","[""img/Fire_Up_Distractor.gif"",""img/Fire_Up_Distractor.gif"",""img/Fire_Up_Distractor.gif"",""img/Fire_Up_Distractor.gif"",""img/Fire_Up_Distractor.gif"",""img/Fire_Up_Distractor.gif"",""img/Fire_Up_Distractor.gif"",""img/Fire_Up_Distractor.gif"",""img/Fire_Up_Distractor.gif"",""img/Fire_Up_Distractor.gif"",""img/Fire_Up_Distractor.gif"",""img/Fire_Up_Distractor.gif""]","7","targetDown_distractorsUp"
"","","","","","html-keyboard-response","26","609162","0.0-14.0-0.0-0.6","5f2dc04ae81ec50f0b8ea40f","619531dcf66c91622fa1b861","6195999b93c099a67b34744f","null","","null","","","","","main_T1_ITI","","","","",""
"","","","","","visual-search-circle","27","611912","0.0-14.0-0.0-1.6","5f2dc04ae81ec50f0b8ea40f","619531dcf66c91622fa1b861","6195999b93c099a67b34744f","1742.7999999523163","","s","true","[[16,397],[305,599],[586,387],[472,54],[119,60]]","false","5","main_T2_Trial","s","img/Fire_Up_Target.gif","[""img/Fire_Down_Distractor.gif"",""img/Fire_Down_Distractor.gif"",""img/Fire_Down_Distractor.gif"",""img/Fire_Down_Distractor.gif"",""img/Fire_Down_Distractor.gif"",""img/Fire_Down_Distractor.gif"",""img/Fire_Down_Distractor.gif"",""img/Fire_Down_Distractor.gif"",""img/Fire_Down_Distractor.gif"",""img/Fire_Down_Distractor.gif"",""img/Fire_Down_Distractor.gif"",""img/Fire_Down_Distractor.gif""]","5","targetUp_distractorsDown"
"","","","","","html-keyboard-response","28","611915","0.0-14.0-0.0-0.7","5f2dc04ae81ec50f0b8ea40f","619531dcf66c91622fa1b861","6195999b93c099a67b34744f","null","","null","","","","","main_T1_ITI","","","","",""
"","","","","","visual-search-circle","29","613945","0.0-14.0-0.0-1.7","5f2dc04ae81ec50f0b8ea40f","619531dcf66c91622fa1b861","6195999b93c099a67b34744f","1023.7999999523163","","d","true","[[341,2],[30,168],[91,515],[440,564],[595,247]]","true","5","main_T2_Trial","d","img/Fire_Down_Target.gif","[""img/Fire_Up_Distractor.gif"",""img/Fire_Up_Distractor.gif"",""img/Fire_Up_Distractor.gif"",""img/Fire_Up_Distractor.gif"",""img/Fire_Up_Distractor.gif"",""img/Fire_Up_Distractor.gif"",""img/Fire_Up_Distractor.gif"",""img/Fire_Up_Distractor.gif"",""img/Fire_Up_Distractor.gif"",""img/Fire_Up_Distractor.gif"",""img/Fire_Up_Distractor.gif"",""img/Fire_Up_Distractor.gif""]","5","targetDown_distractorsUp"
"","","","","","html-keyboard-response","30","613962","0.0-14.0-0.0-0.8","5f2dc04ae81ec50f0b8ea40f","619531dcf66c91622fa1b861","6195999b93c099a67b34744f","null","","null","","","","","main_T1_ITI","","","","",""
"","","","","","visual-search-circle","31","616622","0.0-14.0-0.0-1.8","5f2dc04ae81ec50f0b8ea40f","619531dcf66c91622fa1b861","6195999b93c099a67b34744f","1652","","d","true","[[6,362],[362,593],[593,237],[237,6]]","true","4","main_T2_Trial","d","img/Fire_Down_Target.gif","[""img/Fire_Up_Distractor.gif"",""img/Fire_Up_Distractor.gif"",""img/Fire_Up_Distractor.gif"",""img/Fire_Up_Distractor.gif"",""img/Fire_Up_Distractor.gif"",""img/Fire_Up_Distractor.gif"",""img/Fire_Up_Distractor.gif"",""img/Fire_Up_Distractor.gif"",""img/Fire_Up_Distractor.gif"",""img/Fire_Up_Distractor.gif"",""img/Fire_Up_Distractor.gif"",""img/Fire_Up_Distractor.gif""]","4","targetDown_distractorsUp"
"","","","","","html-keyboard-response","32","616624","0.0-14.0-0.0-0.9","5f2dc04ae81ec50f0b8ea40f","619531dcf66c91622fa1b861","6195999b93c099a67b34744f","null","","null","","","","","main_T1_ITI","","","","",""
"","","","","","visual-search-circle","33","620449","0.0-14.0-0.0-1.9","5f2dc04ae81ec50f0b8ea40f","619531dcf66c91622fa1b861","6195999b93c099a67b34744f","2811.7000000476837","","s","false","[[263,2],[63,115],[2,336],[115,536],[336,597],[536,484],[597,263],[484,63]]","true","8","main_T2_Trial","d","img/Fire_Down_Target.gif","[""img/Fire_Up_Distractor.gif"",""img/Fire_Up_Distractor.gif"",""img/Fire_Up_Distractor.gif"",""img/Fire_Up_Distractor.gif"",""img/Fire_Up_Distractor.gif"",""img/Fire_Up_Distractor.gif"",""img/Fire_Up_Distractor.gif"",""img/Fire_Up_Distractor.gif"",""img/Fire_Up_Distractor.gif"",""img/Fire_Up_Distractor.gif"",""img/Fire_Up_Distractor.gif"",""img/Fire_Up_Distractor.gif""]","8","targetDown_distractorsUp"
"","","","","","html-keyboard-response","34","620487","0.0-14.0-0.0-0.10","5f2dc04ae81ec50f0b8ea40f","619531dcf66c91622fa1b861","6195999b93c099a67b34744f","null","","null","","","","","main_T1_ITI","","","","",""
"","","","","","visual-search-circle","35","623025","0.0-14.0-0.0-1.10","5f2dc04ae81ec50f0b8ea40f","619531dcf66c91622fa1b861","6195999b93c099a67b34744f","1528.2999999523163","","s","true","[[217,11],[0,289],[197,581],[536,484],[548,132]]","false","5","main_T2_Trial","s","img/Fire_Down_Target.gif","[""img/Fire_Up_Distractor.gif"",""img/Fire_Up_Distractor.gif"",""img/Fire_Up_Distractor.gif"",""img/Fire_Up_Distractor.gif"",""img/Fire_Up_Distractor.gif"",""img/Fire_Up_Distractor.gif"",""img/Fire_Up_Distractor.gif"",""img/Fire_Up_Distractor.gif"",""img/Fire_Up_Distractor.gif"",""img/Fire_Up_Distractor.gif"",""img/Fire_Up_Distractor.gif"",""img/Fire_Up_Distractor.gif""]","5","targetDown_distractorsUp"
"","","","","","html-keyboard-response","36","623058","0.0-14.0-0.0-0.11","5f2dc04ae81ec50f0b8ea40f","619531dcf66c91622fa1b861","6195999b93c099a67b34744f","null","","null","","","","","main_T1_ITI","","","","",""
"","","","","","visual-search-circle","37","625521","0.0-14.0-0.0-1.11","5f2dc04ae81ec50f0b8ea40f","619531dcf66c91622fa1b861","6195999b93c099a67b34744f","1449","","d","true","[[488,66],[235,7],[30,167],[28,428],[231,591],[485,535],[599,302]]","true","7","main_T2_Trial","d","img/Fire_Down_Target.gif","[""img/Fire_Up_Distractor.gif"",""img/Fire_Up_Distractor.gif"",""img/Fire_Up_Distractor.gif"",""img/Fire_Up_Distractor.gif"",""img/Fire_Up_Distractor.gif"",""img/Fire_Up_Distractor.gif"",""img/Fire_Up_Distractor.gif"",""img/Fire_Up_Distractor.gif"",""img/Fire_Up_Distractor.gif"",""img/Fire_Up_Distractor.gif"",""img/Fire_Up_Distractor.gif"",""img/Fire_Up_Distractor.gif""]","7","targetDown_distractorsUp"
"","","","","","html-keyboard-response","38","625557","0.0-14.0-0.0-0.12","5f2dc04ae81ec50f0b8ea40f","619531dcf66c91622fa1b861","6195999b93c099a67b34744f","null","","null","","","","","main_T1_ITI","","","","",""
"","","","","","visual-search-circle","39","630097","0.0-14.0-0.0-1.12","5f2dc04ae81ec50f0b8ea40f","619531dcf66c91622fa1b861","6195999b93c099a67b34744f","3532.5","","s","true","[[600,300],[300,0],[0,299],[299,600]]","false","4","main_T2_Trial","s","img/Fire_Up_Target.gif","[""img/Fire_Down_Distractor.gif"",""img/Fire_Down_Distractor.gif"",""img/Fire_Down_Distractor.gif"",""img/Fire_Down_Distractor.gif"",""img/Fire_Down_Distractor.gif"",""img/Fire_Down_Distractor.gif"",""img/Fire_Down_Distractor.gif"",""img/Fire_Down_Distractor.gif"",""img/Fire_Down_Distractor.gif"",""img/Fire_Down_Distractor.gif"",""img/Fire_Down_Distractor.gif"",""img/Fire_Down_Distractor.gif""]","4","targetUp_distractorsDown"
"","","","","","html-keyboard-response","40","630099","0.0-14.0-0.0-0.13","5f2dc04ae81ec50f0b8ea40f","619531dcf66c91622fa1b861","6195999b93c099a67b34744f","null","","null","","","","","main_T1_ITI","","","","",""
"","","","","","visual-search-circle","41","632617","0.0-14.0-0.0-1.13","5f2dc04ae81ec50f0b8ea40f","619531dcf66c91622fa1b861","6195999b93c099a67b34744f","1508.8000000715256","","d","true","[[2,336],[182,576],[480,539],[597,263],[417,23],[119,60]]","true","6","main_T2_Trial","d","img/Fire_Down_Target.gif","[""img/Fire_Up_Distractor.gif"",""img/Fire_Up_Distractor.gif"",""img/Fire_Up_Distractor.gif"",""img/Fire_Up_Distractor.gif"",""img/Fire_Up_Distractor.gif"",""img/Fire_Up_Distractor.gif"",""img/Fire_Up_Distractor.gif"",""img/Fire_Up_Distractor.gif"",""img/Fire_Up_Distractor.gif"",""img/Fire_Up_Distractor.gif"",""img/Fire_Up_Distractor.gif"",""img/Fire_Up_Distractor.gif""]","6","targetDown_distractorsUp"
"","","","","","html-keyboard-response","42","632645","0.0-14.0-0.0-0.14","5f2dc04ae81ec50f0b8ea40f","619531dcf66c91622fa1b861","6195999b93c099a67b34744f","null","","null","","","","","main_T1_ITI","","","","",""
"","","","","","visual-search-circle","43","635338","0.0-14.0-0.0-1.14","5f2dc04ae81ec50f0b8ea40f","619531dcf66c91622fa1b861","6195999b93c099a67b34744f","1686.3999999761581","","s","false","[[300,0],[0,299],[299,600],[600,300]]","true","4","main_T2_Trial","d","img/Fire_Down_Target.gif","[""img/Fire_Up_Distractor.gif"",""img/Fire_Up_Distractor.gif"",""img/Fire_Up_Distractor.gif"",""img/Fire_Up_Distractor.gif"",""img/Fire_Up_Distractor.gif"",""img/Fire_Up_Distractor.gif"",""img/Fire_Up_Distractor.gif"",""img/Fire_Up_Distractor.gif"",""img/Fire_Up_Distractor.gif"",""img/Fire_Up_Distractor.gif"",""img/Fire_Up_Distractor.gif"",""img/Fire_Up_Distractor.gif""]","4","targetDown_distractorsUp"
"","","","","","html-keyboard-response","44","635344","0.0-14.0-0.0-0.15","5f2dc04ae81ec50f0b8ea40f","619531dcf66c91622fa1b861","6195999b93c099a67b34744f","null","","null","","","","","main_T1_ITI","","","","",""
"","","","","","visual-search-circle","45","640294","0.0-14.0-0.0-1.15","5f2dc04ae81ec50f0b8ea40f","619531dcf66c91622fa1b861","6195999b93c099a67b34744f","3943.2000000476837","","s","false","[[326,598],[571,426],[545,127],[273,1],[28,173],[54,472]]","true","6","main_T2_Trial","d","img/Fire_Up_Target.gif","[""img/Fire_Down_Distractor.gif"",""img/Fire_Down_Distractor.gif"",""img/Fire_Down_Distractor.gif"",""img/Fire_Down_Distractor.gif"",""img/Fire_Down_Distractor.gif"",""img/Fire_Down_Distractor.gif"",""img/Fire_Down_Distractor.gif"",""img/Fire_Down_Distractor.gif"",""img/Fire_Down_Distractor.gif"",""img/Fire_Down_Distractor.gif"",""img/Fire_Down_Distractor.gif"",""img/Fire_Down_Distractor.gif""]","6","targetUp_distractorsDown"
"","","","","","html-keyboard-response","46","640296","0.0-14.0-0.0-0.16","5f2dc04ae81ec50f0b8ea40f","619531dcf66c91622fa1b861","6195999b93c099a67b34744f","null","","null","","","","","main_T1_ITI","","","","",""
"","","","","","visual-search-circle","47","643333","0.0-14.0-0.0-1.16","5f2dc04ae81ec50f0b8ea40f","619531dcf66c91622fa1b861","6195999b93c099a67b34744f","2026.6000000238419","","s","false","[[422,574],[590,375],[540,120],[308,0],[71,106],[5,357],[161,566]]","true","7","main_T2_Trial","d","img/Fire_Up_Target.gif","[""img/Fire_Down_Distractor.gif"",""img/Fire_Down_Distractor.gif"",""img/Fire_Down_Distractor.gif"",""img/Fire_Down_Distractor.gif"",""img/Fire_Down_Distractor.gif"",""img/Fire_Down_Distractor.gif"",""img/Fire_Down_Distractor.gif"",""img/Fire_Down_Distractor.gif"",""img/Fire_Down_Distractor.gif"",""img/Fire_Down_Distractor.gif"",""img/Fire_Down_Distractor.gif"",""img/Fire_Down_Distractor.gif""]","7","targetUp_distractorsDown"
"","","","","","html-keyboard-response","48","643353","0.0-14.0-0.0-0.17","5f2dc04ae81ec50f0b8ea40f","619531dcf66c91622fa1b861","6195999b93c099a67b34744f","null","","null","","","","","main_T1_ITI","","","","",""
"","","","","","visual-search-circle","49","645975","0.0-14.0-0.0-1.17","5f2dc04ae81ec50f0b8ea40f","619531dcf66c91622fa1b861","6195999b93c099a67b34744f","1608.8000000715256","","s","true","[[149,559],[377,589],[559,450],[589,222],[449,40],[222,10],[40,150],[10,377]]","false","8","main_T2_Trial","s","img/Fire_Up_Target.gif","[""img/Fire_Down_Distractor.gif"",""img/Fire_Down_Distractor.gif"",""img/Fire_Down_Distractor.gif"",""img/Fire_Down_Distractor.gif"",""img/Fire_Down_Distractor.gif"",""img/Fire_Down_Distractor.gif"",""img/Fire_Down_Distractor.gif"",""img/Fire_Down_Distractor.gif"",""img/Fire_Down_Distractor.gif"",""img/Fire_Down_Distractor.gif"",""img/Fire_Down_Distractor.gif"",""img/Fire_Down_Distractor.gif""]","8","targetUp_distractorsDown"
"","","","","","html-keyboard-response","50","645988","0.0-14.0-0.0-0.18","5f2dc04ae81ec50f0b8ea40f","619531dcf66c91622fa1b861","6195999b93c099a67b34744f","null","","null","","","","","main_T1_ITI","","","","",""
"","","","","","visual-search-circle","51","648369","0.0-14.0-0.0-1.18","5f2dc04ae81ec50f0b8ea40f","619531dcf66c91622fa1b861","6195999b93c099a67b34744f","1369","","d","true","[[141,45],[7,232],[45,458],[232,592],[458,554],[592,367],[554,141],[367,7]]","true","8","main_T2_Trial","d","img/Fire_Up_Target.gif","[""img/Fire_Down_Distractor.gif"",""img/Fire_Down_Distractor.gif"",""img/Fire_Down_Distractor.gif"",""img/Fire_Down_Distractor.gif"",""img/Fire_Down_Distractor.gif"",""img/Fire_Down_Distractor.gif"",""img/Fire_Down_Distractor.gif"",""img/Fire_Down_Distractor.gif"",""img/Fire_Down_Distractor.gif"",""img/Fire_Down_Distractor.gif"",""img/Fire_Down_Distractor.gif"",""img/Fire_Down_Distractor.gif""]","8","targetUp_distractorsDown"
"","","","","","html-keyboard-response","52","652810","0.0-14.0-0.0-0.19","5f2dc04ae81ec50f0b8ea40f","619531dcf66c91622fa1b861","6195999b93c099a67b34744f","4439.199999928474","Wow! You've completed 20 out of 160 trials! </p> <p>  </p><p> Take a quick break, then press any key when you're ready to continue."," ","","","","","main_T1_ITI","","","","",""
"","","","","","visual-search-circle","53","655417","0.0-14.0-0.0-1.19","5f2dc04ae81ec50f0b8ea40f","619531dcf66c91622fa1b861","6195999b93c099a67b34744f","1595.3999999761581","","s","true","[[412,21],[152,38],[3,252],[78,501],[319,599],[546,471],[587,214]]","false","7","main_T2_Trial","s","img/Fire_Up_Target.gif","[""img/Fire_Down_Distractor.gif"",""img/Fire_Down_Distractor.gif"",""img/Fire_Down_Distractor.gif"",""img/Fire_Down_Distractor.gif"",""img/Fire_Down_Distractor.gif"",""img/Fire_Down_Distractor.gif"",""img/Fire_Down_Distractor.gif"",""img/Fire_Down_Distractor.gif"",""img/Fire_Down_Distractor.gif"",""img/Fire_Down_Distractor.gif"",""img/Fire_Down_Distractor.gif"",""img/Fire_Down_Distractor.gif""]","7","targetUp_distractorsDown"
"","","","","","html-keyboard-response","54","655427","0.0-14.0-0.0-0.20","5f2dc04ae81ec50f0b8ea40f","619531dcf66c91622fa1b861","6195999b93c099a67b34744f","null","","null","","","","","main_T1_ITI","","","","",""
"","","","","","visual-search-circle","55","658088","0.0-14.0-0.0-1.20","5f2dc04ae81ec50f0b8ea40f","619531dcf66c91622fa1b861","6195999b93c099a67b34744f","1649.2999999523163","","s","true","[[207,585],[465,550],[598,326],[507,83],[259,2],[42,146],[19,405]]","false","7","main_T2_Trial","s","img/Fire_Down_Target.gif","[""img/Fire_Up_Distractor.gif"",""img/Fire_Up_Distractor.gif"",""img/Fire_Up_Distractor.gif"",""img/Fire_Up_Distractor.gif"",""img/Fire_Up_Distractor.gif"",""img/Fire_Up_Distractor.gif"",""img/Fire_Up_Distractor.gif"",""img/Fire_Up_Distractor.gif"",""img/Fire_Up_Distractor.gif"",""img/Fire_Up_Distractor.gif"",""img/Fire_Up_Distractor.gif"",""img/Fire_Up_Distractor.gif""]","7","targetDown_distractorsUp"
"","","","","","html-keyboard-response","56","658108","0.0-14.0-0.0-0.21","5f2dc04ae81ec50f0b8ea40f","619531dcf66c91622fa1b861","6195999b93c099a67b34744f","null","","null","","","","","main_T1_ITI","","","","",""
"","","","","","visual-search-circle","57","660831","0.0-14.0-0.0-1.21","5f2dc04ae81ec50f0b8ea40f","619531dcf66c91622fa1b861","6195999b93c099a67b34744f","1715.1999999284744","","d","true","[[35,440],[352,595],[597,341],[431,30],[84,91]]","true","5","main_T2_Trial","d","img/Fire_Up_Target.gif","[""img/Fire_Down_Distractor.gif"",""img/Fire_Down_Distractor.gif"",""img/Fire_Down_Distractor.gif"",""img/Fire_Down_Distractor.gif"",""img/Fire_Down_Distractor.gif"",""img/Fire_Down_Distractor.gif"",""img/Fire_Down_Distractor.gif"",""img/Fire_Down_Distractor.gif"",""img/Fire_Down_Distractor.gif"",""img/Fire_Down_Distractor.gif"",""img/Fire_Down_Distractor.gif"",""img/Fire_Down_Distractor.gif""]","5","targetUp_distractorsDown"
"","","","","","html-keyboard-response","58","660867","0.0-14.0-0.0-0.22","5f2dc04ae81ec50f0b8ea40f","619531dcf66c91622fa1b861","6195999b93c099a67b34744f","null","","null","","","","","main_T1_ITI","","","","",""
"","","","","","visual-search-circle","59","662698","0.0-14.0-0.0-1.22","5f2dc04ae81ec50f0b8ea40f","619531dcf66c91622fa1b861","6195999b93c099a67b34744f","823.6000000238419","","d","true","[[11,217],[132,548],[484,536],[581,197],[289,0]]","true","5","main_T2_Trial","d","img/Fire_Down_Target.gif","[""img/Fire_Up_Distractor.gif"",""img/Fire_Up_Distractor.gif"",""img/Fire_Up_Distractor.gif"",""img/Fire_Up_Distractor.gif"",""img/Fire_Up_Distractor.gif"",""img/Fire_Up_Distractor.gif"",""img/Fire_Up_Distractor.gif"",""img/Fire_Up_Distractor.gif"",""img/Fire_Up_Distractor.gif"",""img/Fire_Up_Distractor.gif"",""img/Fire_Up_Distractor.gif"",""img/Fire_Up_Distractor.gif""]","5","targetDown_distractorsUp"
"","","","","","html-keyboard-response","60","662732","0.0-14.0-0.0-0.23","5f2dc04ae81ec50f0b8ea40f","619531dcf66c91622fa1b861","6195999b93c099a67b34744f","null","","null","","","","","main_T1_ITI","","","","",""
"","","","","","visual-search-circle","61","664525","0.0-14.0-0.0-1.23","5f2dc04ae81ec50f0b8ea40f","619531dcf66c91622fa1b861","6195999b93c099a67b34744f","784.8000000715256","","d","true","[[54,472],[326,598],[571,426],[545,127],[273,1],[28,173]]","true","6","main_T2_Trial","d","img/Fire_Up_Target.gif","[""img/Fire_Down_Distractor.gif"",""img/Fire_Down_Distractor.gif"",""img/Fire_Down_Distractor.gif"",""img/Fire_Down_Distractor.gif"",""img/Fire_Down_Distractor.gif"",""img/Fire_Down_Distractor.gif"",""img/Fire_Down_Distractor.gif"",""img/Fire_Down_Distractor.gif"",""img/Fire_Down_Distractor.gif"",""img/Fire_Down_Distractor.gif"",""img/Fire_Down_Distractor.gif"",""img/Fire_Down_Distractor.gif""]","6","targetUp_distractorsDown"
"","","","","","html-keyboard-response","62","664540","0.0-14.0-0.0-0.24","5f2dc04ae81ec50f0b8ea40f","619531dcf66c91622fa1b861","6195999b93c099a67b34744f","null","","null","","","","","main_T1_ITI","","","","",""
"","","","","","visual-search-circle","63","666749","0.0-14.0-0.0-1.24","5f2dc04ae81ec50f0b8ea40f","619531dcf66c91622fa1b861","6195999b93c099a67b34744f","1200.3000000715256","","s","true","[[533,111],[192,19],[0,315],[222,589],[551,463]]","false","5","main_T2_Trial","s","img/Fire_Down_Target.gif","[""img/Fire_Up_Distractor.gif"",""img/Fire_Up_Distractor.gif"",""img/Fire_Up_Distractor.gif"",""img/Fire_Up_Distractor.gif"",""img/Fire_Up_Distractor.gif"",""img/Fire_Up_Distractor.gif"",""img/Fire_Up_Distractor.gif"",""img/Fire_Up_Distractor.gif"",""img/Fire_Up_Distractor.gif"",""img/Fire_Up_Distractor.gif"",""img/Fire_Up_Distractor.gif"",""img/Fire_Up_Distractor.gif""]","5","targetDown_distractorsUp"
"","","","","","html-keyboard-response","64","666775","0.0-14.0-0.0-0.25","5f2dc04ae81ec50f0b8ea40f","619531dcf66c91622fa1b861","6195999b93c099a67b34744f","null","","null","","","","","main_T1_ITI","","","","",""
"","","","","","visual-search-circle","65","670073","0.0-14.0-0.0-1.25","5f2dc04ae81ec50f0b8ea40f","619531dcf66c91622fa1b861","6195999b93c099a67b34744f","2287","","s","false","[[57,123],[10,379],[182,575],[442,564],[595,353],[525,102],[286,0]]","true","7","main_T2_Trial","d","img/Fire_Down_Target.gif","[""img/Fire_Up_Distractor.gif"",""img/Fire_Up_Distractor.gif"",""img/Fire_Up_Distractor.gif"",""img/Fire_Up_Distractor.gif"",""img/Fire_Up_Distractor.gif"",""img/Fire_Up_Distractor.gif"",""img/Fire_Up_Distractor.gif"",""img/Fire_Up_Distractor.gif"",""img/Fire_Up_Distractor.gif"",""img/Fire_Up_Distractor.gif"",""img/Fire_Up_Distractor.gif"",""img/Fire_Up_Distractor.gif""]","7","targetDown_distractorsUp"
"","","","","","html-keyboard-response","66","670076","0.0-14.0-0.0-0.26","5f2dc04ae81ec50f0b8ea40f","619531dcf66c91622fa1b861","6195999b93c099a67b34744f","null","","null","","","","","main_T1_ITI","","","","",""
"","","","","","visual-search-circle","67","672424","0.0-14.0-0.0-1.26","5f2dc04ae81ec50f0b8ea40f","619531dcf66c91622fa1b861","6195999b93c099a67b34744f","1340.7999999523163","","s","true","[[0,299],[207,585],[542,476],[542,123],[207,14]]","false","5","main_T2_Trial","s","img/Fire_Up_Target.gif","[""img/Fire_Down_Distractor.gif"",""img/Fire_Down_Distractor.gif"",""img/Fire_Down_Distractor.gif"",""img/Fire_Down_Distractor.gif"",""img/Fire_Down_Distractor.gif"",""img/Fire_Down_Distractor.gif"",""img/Fire_Down_Distractor.gif"",""img/Fire_Down_Distractor.gif"",""img/Fire_Down_Distractor.gif"",""img/Fire_Down_Distractor.gif"",""img/Fire_Down_Distractor.gif"",""img/Fire_Down_Distractor.gif""]","5","targetUp_distractorsDown"
"","","","","","html-keyboard-response","68","672440","0.0-14.0-0.0-0.27","5f2dc04ae81ec50f0b8ea40f","619531dcf66c91622fa1b861","6195999b93c099a67b34744f","null","","null","","","","","main_T1_ITI","","","","",""
"","","","","","visual-search-circle","69","674910","0.0-14.0-0.0-1.27","5f2dc04ae81ec50f0b8ea40f","619531dcf66c91622fa1b861","6195999b93c099a67b34744f","1455.8999999761581","","d","true","[[554,141],[367,7],[141,45],[7,232],[45,458],[232,592],[458,554],[592,367]]","true","8","main_T2_Trial","d","img/Fire_Down_Target.gif","[""img/Fire_Up_Distractor.gif"",""img/Fire_Up_Distractor.gif"",""img/Fire_Up_Distractor.gif"",""img/Fire_Up_Distractor.gif"",""img/Fire_Up_Distractor.gif"",""img/Fire_Up_Distractor.gif"",""img/Fire_Up_Distractor.gif"",""img/Fire_Up_Distractor.gif"",""img/Fire_Up_Distractor.gif"",""img/Fire_Up_Distractor.gif"",""img/Fire_Up_Distractor.gif"",""img/Fire_Up_Distractor.gif""]","8","targetDown_distractorsUp"
"","","","","","html-keyboard-response","70","674914","0.0-14.0-0.0-0.28","5f2dc04ae81ec50f0b8ea40f","619531dcf66c91622fa1b861","6195999b93c099a67b34744f","null","","null","","","","","main_T1_ITI","","","","",""
"","","","","","visual-search-circle","71","678031","0.0-14.0-0.0-1.28","5f2dc04ae81ec50f0b8ea40f","619531dcf66c91622fa1b861","6195999b93c099a67b34744f","2108.0999999046326","","s","true","[[132,51],[0,320],[168,569],[467,548],[599,279],[431,30]]","false","6","main_T2_Trial","s","img/Fire_Up_Target.gif","[""img/Fire_Down_Distractor.gif"",""img/Fire_Down_Distractor.gif"",""img/Fire_Down_Distractor.gif"",""img/Fire_Down_Distractor.gif"",""img/Fire_Down_Distractor.gif"",""img/Fire_Down_Distractor.gif"",""img/Fire_Down_Distractor.gif"",""img/Fire_Down_Distractor.gif"",""img/Fire_Down_Distractor.gif"",""img/Fire_Down_Distractor.gif"",""img/Fire_Down_Distractor.gif"",""img/Fire_Down_Distractor.gif""]","6","targetUp_distractorsDown"
"","","","","","html-keyboard-response","72","678033","0.0-14.0-0.0-0.29","5f2dc04ae81ec50f0b8ea40f","619531dcf66c91622fa1b861","6195999b93c099a67b34744f","null","","null","","","","","main_T1_ITI","","","","",""
"","","","","","visual-search-circle","73","680741","0.0-14.0-0.0-1.29","5f2dc04ae81ec50f0b8ea40f","619531dcf66c91622fa1b861","6195999b93c099a67b34744f","1701.7999999523163","","d","true","[[154,562],[562,445],[445,37],[37,154]]","true","4","main_T2_Trial","d","img/Fire_Up_Target.gif","[""img/Fire_Down_Distractor.gif"",""img/Fire_Down_Distractor.gif"",""img/Fire_Down_Distractor.gif"",""img/Fire_Down_Distractor.gif"",""img/Fire_Down_Distractor.gif"",""img/Fire_Down_Distractor.gif"",""img/Fire_Down_Distractor.gif"",""img/Fire_Down_Distractor.gif"",""img/Fire_Down_Distractor.gif"",""img/Fire_Down_Distractor.gif"",""img/Fire_Down_Distractor.gif"",""img/Fire_Down_Distractor.gif""]","4","targetUp_distractorsDown"
"","","","","","html-keyboard-response","74","680744","0.0-14.0-0.0-0.30","5f2dc04ae81ec50f0b8ea40f","619531dcf66c91622fa1b861","6195999b93c099a67b34744f","null","","null","","","","","main_T1_ITI","","","","",""
"","","","","","visual-search-circle","75","682764","0.0-14.0-0.0-1.30","5f2dc04ae81ec50f0b8ea40f","619531dcf66c91622fa1b861","6195999b93c099a67b34744f","1014.2000000476837","","d","true","[[32,436],[346,596],[596,346],[436,32],[87,87]]","true","5","main_T2_Trial","d","img/Fire_Up_Target.gif","[""img/Fire_Down_Distractor.gif"",""img/Fire_Down_Distractor.gif"",""img/Fire_Down_Distractor.gif"",""img/Fire_Down_Distractor.gif"",""img/Fire_Down_Distractor.gif"",""img/Fire_Down_Distractor.gif"",""img/Fire_Down_Distractor.gif"",""img/Fire_Down_Distractor.gif"",""img/Fire_Down_Distractor.gif"",""img/Fire_Down_Distractor.gif"",""img/Fire_Down_Distractor.gif"",""img/Fire_Down_Distractor.gif""]","5","targetUp_distractorsDown"
"","","","","","html-keyboard-response","76","682783","0.0-14.0-0.0-0.31","5f2dc04ae81ec50f0b8ea40f","619531dcf66c91622fa1b861","6195999b93c099a67b34744f","null","","null","","","","","main_T1_ITI","","","","",""
"","","","","","visual-search-circle","77","684763","0.0-14.0-0.0-1.31","5f2dc04ae81ec50f0b8ea40f","619531dcf66c91622fa1b861","6195999b93c099a67b34744f","972.5","","s","true","[[7,367],[273,598],[576,417],[496,73],[145,42]]","false","5","main_T2_Trial","s","img/Fire_Down_Target.gif","[""img/Fire_Up_Distractor.gif"",""img/Fire_Up_Distractor.gif"",""img/Fire_Up_Distractor.gif"",""img/Fire_Up_Distractor.gif"",""img/Fire_Up_Distractor.gif"",""img/Fire_Up_Distractor.gif"",""img/Fire_Up_Distractor.gif"",""img/Fire_Up_Distractor.gif"",""img/Fire_Up_Distractor.gif"",""img/Fire_Up_Distractor.gif"",""img/Fire_Up_Distractor.gif"",""img/Fire_Up_Distractor.gif""]","5","targetDown_distractorsUp"
"","","","","","html-keyboard-response","78","684772","0.0-14.0-0.0-0.32","5f2dc04ae81ec50f0b8ea40f","619531dcf66c91622fa1b861","6195999b93c099a67b34744f","null","","null","","","","","main_T1_ITI","","","","",""
"","","","","","visual-search-circle","79","687112","0.0-14.0-0.0-1.32","5f2dc04ae81ec50f0b8ea40f","619531dcf66c91622fa1b861","6195999b93c099a67b34744f","1331.1999999284744","","s","true","[[578,412],[492,70],[141,45],[8,372],[279,599]]","false","5","main_T2_Trial","s","img/Fire_Down_Target.gif","[""img/Fire_Up_Distractor.gif"",""img/Fire_Up_Distractor.gif"",""img/Fire_Up_Distractor.gif"",""img/Fire_Up_Distractor.gif"",""img/Fire_Up_Distractor.gif"",""img/Fire_Up_Distractor.gif"",""img/Fire_Up_Distractor.gif"",""img/Fire_Up_Distractor.gif"",""img/Fire_Up_Distractor.gif"",""img/Fire_Up_Distractor.gif"",""img/Fire_Up_Distractor.gif"",""img/Fire_Up_Distractor.gif""]","5","targetDown_distractorsUp"
"","","","","","html-keyboard-response","80","687114","0.0-14.0-0.0-0.33","5f2dc04ae81ec50f0b8ea40f","619531dcf66c91622fa1b861","6195999b93c099a67b34744f","null","","null","","","","","main_T1_ITI","","","","",""
"","","","","","visual-search-circle","81","689649","0.0-14.0-0.0-1.33","5f2dc04ae81ec50f0b8ea40f","619531dcf66c91622fa1b861","6195999b93c099a67b34744f","1528.6999999284744","","s","true","[[397,583],[594,357],[496,73],[202,16],[5,242],[103,526]]","false","6","main_T2_Trial","s","img/Fire_Down_Target.gif","[""img/Fire_Up_Distractor.gif"",""img/Fire_Up_Distractor.gif"",""img/Fire_Up_Distractor.gif"",""img/Fire_Up_Distractor.gif"",""img/Fire_Up_Distractor.gif"",""img/Fire_Up_Distractor.gif"",""img/Fire_Up_Distractor.gif"",""img/Fire_Up_Distractor.gif"",""img/Fire_Up_Distractor.gif"",""img/Fire_Up_Distractor.gif"",""img/Fire_Up_Distractor.gif"",""img/Fire_Up_Distractor.gif""]","6","targetDown_distractorsUp"
"","","","","","html-keyboard-response","82","689652","0.0-14.0-0.0-0.34","5f2dc04ae81ec50f0b8ea40f","619531dcf66c91622fa1b861","6195999b93c099a67b34744f","null","","null","","","","","main_T1_ITI","","","","",""
"","","","","","visual-search-circle","83","692034","0.0-14.0-0.0-1.34","5f2dc04ae81ec50f0b8ea40f","619531dcf66c91622fa1b861","6195999b93c099a67b34744f","1374.7999999523163","","d","true","[[2,336],[142,555],[401,582],[584,396],[552,137],[330,1],[85,89]]","true","7","main_T2_Trial","d","img/Fire_Up_Target.gif","[""img/Fire_Down_Distractor.gif"",""img/Fire_Down_Distractor.gif"",""img/Fire_Down_Distractor.gif"",""img/Fire_Down_Distractor.gif"",""img/Fire_Down_Distractor.gif"",""img/Fire_Down_Distractor.gif"",""img/Fire_Down_Distractor.gif"",""img/Fire_Down_Distractor.gif"",""img/Fire_Down_Distractor.gif"",""img/Fire_Down_Distractor.gif"",""img/Fire_Down_Distractor.gif"",""img/Fire_Down_Distractor.gif""]","7","targetUp_distractorsDown"
"","","","","","html-keyboard-response","84","692049","0.0-14.0-0.0-0.35","5f2dc04ae81ec50f0b8ea40f","619531dcf66c91622fa1b861","6195999b93c099a67b34744f","null","","null","","","","","main_T1_ITI","","","","",""
"","","","","","visual-search-circle","85","694607","0.0-14.0-0.0-1.35","5f2dc04ae81ec50f0b8ea40f","619531dcf66c91622fa1b861","6195999b93c099a67b34744f","1551.7000000476837","","d","false","[[70,107],[107,529],[529,492],[492,70]]","false","4","main_T2_Trial","s","img/Fire_Up_Target.gif","[""img/Fire_Down_Distractor.gif"",""img/Fire_Down_Distractor.gif"",""img/Fire_Down_Distractor.gif"",""img/Fire_Down_Distractor.gif"",""img/Fire_Down_Distractor.gif"",""img/Fire_Down_Distractor.gif"",""img/Fire_Down_Distractor.gif"",""img/Fire_Down_Distractor.gif"",""img/Fire_Down_Distractor.gif"",""img/Fire_Down_Distractor.gif"",""img/Fire_Down_Distractor.gif"",""img/Fire_Down_Distractor.gif""]","4","targetUp_distractorsDown"
"","","","","","html-keyboard-response","86","694620","0.0-14.0-0.0-0.36","5f2dc04ae81ec50f0b8ea40f","619531dcf66c91622fa1b861","6195999b93c099a67b34744f","null","","null","","","","","main_T1_ITI","","","","",""
"","","","","","visual-search-circle","87","696897","0.0-14.0-0.0-1.36","5f2dc04ae81ec50f0b8ea40f","619531dcf66c91622fa1b861","6195999b93c099a67b34744f","1263.1999999284744","","d","true","[[588,217],[445,37],[217,11],[37,154],[11,382],[154,562],[382,588],[562,445]]","true","8","main_T2_Trial","d","img/Fire_Up_Target.gif","[""img/Fire_Down_Distractor.gif"",""img/Fire_Down_Distractor.gif"",""img/Fire_Down_Distractor.gif"",""img/Fire_Down_Distractor.gif"",""img/Fire_Down_Distractor.gif"",""img/Fire_Down_Distractor.gif"",""img/Fire_Down_Distractor.gif"",""img/Fire_Down_Distractor.gif"",""img/Fire_Down_Distractor.gif"",""img/Fire_Down_Distractor.gif"",""img/Fire_Down_Distractor.gif"",""img/Fire_Down_Distractor.gif""]","8","targetUp_distractorsDown"
"","","","","","html-keyboard-response","88","696907","0.0-14.0-0.0-0.37","5f2dc04ae81ec50f0b8ea40f","619531dcf66c91622fa1b861","6195999b93c099a67b34744f","null","","null","","","","","main_T1_ITI","","","","",""
"","","","","","visual-search-circle","89","699388","0.0-14.0-0.0-1.37","5f2dc04ae81ec50f0b8ea40f","619531dcf66c91622fa1b861","6195999b93c099a67b34744f","1468.3999999761581","","s","true","[[253,3],[57,123],[3,346],[123,542],[346,596],[542,476],[596,253],[476,57]]","false","8","main_T2_Trial","s","img/Fire_Up_Target.gif","[""img/Fire_Down_Distractor.gif"",""img/Fire_Down_Distractor.gif"",""img/Fire_Down_Distractor.gif"",""img/Fire_Down_Distractor.gif"",""img/Fire_Down_Distractor.gif"",""img/Fire_Down_Distractor.gif"",""img/Fire_Down_Distractor.gif"",""img/Fire_Down_Distractor.gif"",""img/Fire_Down_Distractor.gif"",""img/Fire_Down_Distractor.gif"",""img/Fire_Down_Distractor.gif"",""img/Fire_Down_Distractor.gif""]","8","targetUp_distractorsDown"
"","","","","","html-keyboard-response","90","699391","0.0-14.0-0.0-0.38","5f2dc04ae81ec50f0b8ea40f","619531dcf66c91622fa1b861","6195999b93c099a67b34744f","null","","null","","","","","main_T1_ITI","","","","",""
"","","","","","visual-search-circle","91","702133","0.0-14.0-0.0-1.38","5f2dc04ae81ec50f0b8ea40f","619531dcf66c91622fa1b861","6195999b93c099a67b34744f","1735","","s","true","[[436,32],[87,87],[32,436],[346,596],[596,346]]","false","5","main_T2_Trial","s","img/Fire_Up_Target.gif","[""img/Fire_Down_Distractor.gif"",""img/Fire_Down_Distractor.gif"",""img/Fire_Down_Distractor.gif"",""img/Fire_Down_Distractor.gif"",""img/Fire_Down_Distractor.gif"",""img/Fire_Down_Distractor.gif"",""img/Fire_Down_Distractor.gif"",""img/Fire_Down_Distractor.gif"",""img/Fire_Down_Distractor.gif"",""img/Fire_Down_Distractor.gif"",""img/Fire_Down_Distractor.gif"",""img/Fire_Down_Distractor.gif""]","5","targetUp_distractorsDown"
"","","","","","html-keyboard-response","92","703698","0.0-14.0-0.0-0.39","5f2dc04ae81ec50f0b8ea40f","619531dcf66c91622fa1b861","6195999b93c099a67b34744f","1563.8000000715256","Wow! You've completed 40 out of 160 trials! </p> <p>  </p><p> Take a quick break, then press any key when you're ready to continue."," ","","","","","main_T1_ITI","","","","",""
"","","","","","visual-search-circle","93","706152","0.0-14.0-0.0-1.39","5f2dc04ae81ec50f0b8ea40f","619531dcf66c91622fa1b861","6195999b93c099a67b34744f","1438.2999999523163","","s","true","[[545,127],[352,4],[127,54],[4,247],[54,472],[247,595],[472,545],[595,352]]","false","8","main_T2_Trial","s","img/Fire_Up_Target.gif","[""img/Fire_Down_Distractor.gif"",""img/Fire_Down_Distractor.gif"",""img/Fire_Down_Distractor.gif"",""img/Fire_Down_Distractor.gif"",""img/Fire_Down_Distractor.gif"",""img/Fire_Down_Distractor.gif"",""img/Fire_Down_Distractor.gif"",""img/Fire_Down_Distractor.gif"",""img/Fire_Down_Distractor.gif"",""img/Fire_Down_Distractor.gif"",""img/Fire_Down_Distractor.gif"",""img/Fire_Down_Distractor.gif""]","8","targetUp_distractorsDown"
"","","","","","html-keyboard-response","94","706183","0.0-14.0-0.0-0.40","5f2dc04ae81ec50f0b8ea40f","619531dcf66c91622fa1b861","6195999b93c099a67b34744f","null","","null","","","","","main_T1_ITI","","","","",""
"","","","","","visual-search-circle","95","708395","0.0-14.0-0.0-1.40","5f2dc04ae81ec50f0b8ea40f","619531dcf66c91622fa1b861","6195999b93c099a67b34744f","1206.3999999761581","","s","true","[[70,107],[107,529],[529,492],[492,70]]","false","4","main_T2_Trial","s","img/Fire_Up_Target.gif","[""img/Fire_Down_Distractor.gif"",""img/Fire_Down_Distractor.gif"",""img/Fire_Down_Distractor.gif"",""img/Fire_Down_Distractor.gif"",""img/Fire_Down_Distractor.gif"",""img/Fire_Down_Distractor.gif"",""img/Fire_Down_Distractor.gif"",""img/Fire_Down_Distractor.gif"",""img/Fire_Down_Distractor.gif"",""img/Fire_Down_Distractor.gif"",""img/Fire_Down_Distractor.gif"",""img/Fire_Down_Distractor.gif""]","4","targetUp_distractorsDown"
"","","","","","html-keyboard-response","96","708416","0.0-14.0-0.0-0.41","5f2dc04ae81ec50f0b8ea40f","619531dcf66c91622fa1b861","6195999b93c099a67b34744f","null","","null","","","","","main_T1_ITI","","","","",""
"","","","","","visual-search-circle","97","711051","0.0-14.0-0.0-1.41","5f2dc04ae81ec50f0b8ea40f","619531dcf66c91622fa1b861","6195999b93c099a67b34744f","1628.8000000715256","","s","true","[[597,263],[263,2],[2,336],[336,597]]","false","4","main_T2_Trial","s","img/Fire_Up_Target.gif","[""img/Fire_Down_Distractor.gif"",""img/Fire_Down_Distractor.gif"",""img/Fire_Down_Distractor.gif"",""img/Fire_Down_Distractor.gif"",""img/Fire_Down_Distractor.gif"",""img/Fire_Down_Distractor.gif"",""img/Fire_Down_Distractor.gif"",""img/Fire_Down_Distractor.gif"",""img/Fire_Down_Distractor.gif"",""img/Fire_Down_Distractor.gif"",""img/Fire_Down_Distractor.gif"",""img/Fire_Down_Distractor.gif""]","4","targetUp_distractorsDown"
"","","","","","html-keyboard-response","98","711055","0.0-14.0-0.0-0.42","5f2dc04ae81ec50f0b8ea40f","619531dcf66c91622fa1b861","6195999b93c099a67b34744f","null","","null","","","","","main_T1_ITI","","","","",""
"","","","","","visual-search-circle","99","713481","0.0-14.0-0.0-1.42","5f2dc04ae81ec50f0b8ea40f","619531dcf66c91622fa1b861","6195999b93c099a67b34744f","1408.5","","s","true","[[392,585],[567,436],[585,207],[436,32],[207,14],[32,163],[14,392],[163,567]]","false","8","main_T2_Trial","s","img/Fire_Down_Target.gif","[""img/Fire_Up_Distractor.gif"",""img/Fire_Up_Distractor.gif"",""img/Fire_Up_Distractor.gif"",""img/Fire_Up_Distractor.gif"",""img/Fire_Up_Distractor.gif"",""img/Fire_Up_Distractor.gif"",""img/Fire_Up_Distractor.gif"",""img/Fire_Up_Distractor.gif"",""img/Fire_Up_Distractor.gif"",""img/Fire_Up_Distractor.gif"",""img/Fire_Up_Distractor.gif"",""img/Fire_Up_Distractor.gif""]","8","targetDown_distractorsUp"
"","","","","","html-keyboard-response","100","713493","0.0-14.0-0.0-0.43","5f2dc04ae81ec50f0b8ea40f","619531dcf66c91622fa1b861","6195999b93c099a67b34744f","null","","null","","","","","main_T1_ITI","","","","",""
"","","","","","visual-search-circle","101","715869","0.0-14.0-0.0-1.43","5f2dc04ae81ec50f0b8ea40f","619531dcf66c91622fa1b861","6195999b93c099a67b34744f","1366","","s","true","[[187,21],[12,214],[53,471],[280,599],[521,501],[596,252],[447,38]]","false","7","main_T2_Trial","s","img/Fire_Up_Target.gif","[""img/Fire_Down_Distractor.gif"",""img/Fire_Down_Distractor.gif"",""img/Fire_Down_Distractor.gif"",""img/Fire_Down_Distractor.gif"",""img/Fire_Down_Distractor.gif"",""img/Fire_Down_Distractor.gif"",""img/Fire_Down_Distractor.gif"",""img/Fire_Down_Distractor.gif"",""img/Fire_Down_Distractor.gif"",""img/Fire_Down_Distractor.gif"",""img/Fire_Down_Distractor.gif"",""img/Fire_Down_Distractor.gif""]","7","targetUp_distractorsDown"
"","","","","","html-keyboard-response","102","715872","0.0-14.0-0.0-0.44","5f2dc04ae81ec50f0b8ea40f","619531dcf66c91622fa1b861","6195999b93c099a67b34744f","null","","null","","","","","main_T1_ITI","","","","",""
"","","","","","visual-search-circle","103","717724","0.0-14.0-0.0-1.44","5f2dc04ae81ec50f0b8ea40f","619531dcf66c91622fa1b861","6195999b93c099a67b34744f","841.4000000953674","","s","true","[[217,588],[473,544],[599,316],[499,76],[249,4],[37,155],[22,415]]","false","7","main_T2_Trial","s","img/Fire_Down_Target.gif","[""img/Fire_Up_Distractor.gif"",""img/Fire_Up_Distractor.gif"",""img/Fire_Up_Distractor.gif"",""img/Fire_Up_Distractor.gif"",""img/Fire_Up_Distractor.gif"",""img/Fire_Up_Distractor.gif"",""img/Fire_Up_Distractor.gif"",""img/Fire_Up_Distractor.gif"",""img/Fire_Up_Distractor.gif"",""img/Fire_Up_Distractor.gif"",""img/Fire_Up_Distractor.gif"",""img/Fire_Up_Distractor.gif""]","7","targetDown_distractorsUp"
"","","","","","html-keyboard-response","104","717735","0.0-14.0-0.0-0.45","5f2dc04ae81ec50f0b8ea40f","619531dcf66c91622fa1b861","6195999b93c099a67b34744f","null","","null","","","","","main_T1_ITI","","","","",""
"","","","","","visual-search-circle","105","719807","0.0-14.0-0.0-1.45","5f2dc04ae81ec50f0b8ea40f","619531dcf66c91622fa1b861","6195999b93c099a67b34744f","1059.8999999761581","","s","true","[[132,51],[0,276],[94,518],[343,596],[559,451],[579,191],[389,13]]","false","7","main_T2_Trial","s","img/Fire_Down_Target.gif","[""img/Fire_Up_Distractor.gif"",""img/Fire_Up_Distractor.gif"",""img/Fire_Up_Distractor.gif"",""img/Fire_Up_Distractor.gif"",""img/Fire_Up_Distractor.gif"",""img/Fire_Up_Distractor.gif"",""img/Fire_Up_Distractor.gif"",""img/Fire_Up_Distractor.gif"",""img/Fire_Up_Distractor.gif"",""img/Fire_Up_Distractor.gif"",""img/Fire_Up_Distractor.gif"",""img/Fire_Up_Distractor.gif""]","7","targetDown_distractorsUp"
"","","","","","html-keyboard-response","106","719820","0.0-14.0-0.0-0.46","5f2dc04ae81ec50f0b8ea40f","619531dcf66c91622fa1b861","6195999b93c099a67b34744f","null","","null","","","","","main_T1_ITI","","","","",""
"","","","","","visual-search-circle","107","722097","0.0-14.0-0.0-1.46","5f2dc04ae81ec50f0b8ea40f","619531dcf66c91622fa1b861","6195999b93c099a67b34744f","1266","","s","true","[[529,492],[554,141],[227,8],[0,279],[187,578]]","false","5","main_T2_Trial","s","img/Fire_Up_Target.gif","[""img/Fire_Down_Distractor.gif"",""img/Fire_Down_Distractor.gif"",""img/Fire_Down_Distractor.gif"",""img/Fire_Down_Distractor.gif"",""img/Fire_Down_Distractor.gif"",""img/Fire_Down_Distractor.gif"",""img/Fire_Down_Distractor.gif"",""img/Fire_Down_Distractor.gif"",""img/Fire_Down_Distractor.gif"",""img/Fire_Down_Distractor.gif"",""img/Fire_Down_Distractor.gif"",""img/Fire_Down_Distractor.gif""]","5","targetUp_distractorsDown"
"","","","","","html-keyboard-response","108","722107","0.0-14.0-0.0-0.47","5f2dc04ae81ec50f0b8ea40f","619531dcf66c91622fa1b861","6195999b93c099a67b34744f","null","","null","","","","","main_T1_ITI","","","","",""
"","","","","","visual-search-circle","109","724317","0.0-14.0-0.0-1.47","5f2dc04ae81ec50f0b8ea40f","619531dcf66c91622fa1b861","6195999b93c099a67b34744f","1200.1999999284744","","d","true","[[554,458],[582,200],[398,16],[139,46],[1,267],[88,512],[334,598]]","true","7","main_T2_Trial","d","img/Fire_Down_Target.gif","[""img/Fire_Up_Distractor.gif"",""img/Fire_Up_Distractor.gif"",""img/Fire_Up_Distractor.gif"",""img/Fire_Up_Distractor.gif"",""img/Fire_Up_Distractor.gif"",""img/Fire_Up_Distractor.gif"",""img/Fire_Up_Distractor.gif"",""img/Fire_Up_Distractor.gif"",""img/Fire_Up_Distractor.gif"",""img/Fire_Up_Distractor.gif"",""img/Fire_Up_Distractor.gif"",""img/Fire_Up_Distractor.gif""]","7","targetDown_distractorsUp"
"","","","","","html-keyboard-response","110","724319","0.0-14.0-0.0-0.48","5f2dc04ae81ec50f0b8ea40f","619531dcf66c91622fa1b861","6195999b93c099a67b34744f","null","","null","","","","","main_T1_ITI","","","","",""
"","","","","","visual-search-circle","111","726988","0.0-14.0-0.0-1.48","5f2dc04ae81ec50f0b8ea40f","619531dcf66c91622fa1b861","6195999b93c099a67b34744f","1661","","s","true","[[480,60],[60,119],[119,539],[539,480]]","false","4","main_T2_Trial","s","img/Fire_Down_Target.gif","[""img/Fire_Up_Distractor.gif"",""img/Fire_Up_Distractor.gif"",""img/Fire_Up_Distractor.gif"",""img/Fire_Up_Distractor.gif"",""img/Fire_Up_Distractor.gif"",""img/Fire_Up_Distractor.gif"",""img/Fire_Up_Distractor.gif"",""img/Fire_Up_Distractor.gif"",""img/Fire_Up_Distractor.gif"",""img/Fire_Up_Distractor.gif"",""img/Fire_Up_Distractor.gif"",""img/Fire_Up_Distractor.gif""]","4","targetDown_distractorsUp"
"","","","","","html-keyboard-response","112","727011","0.0-14.0-0.0-0.49","5f2dc04ae81ec50f0b8ea40f","619531dcf66c91622fa1b861","6195999b93c099a67b34744f","null","","null","","","","","main_T1_ITI","","","","",""
"","","","","","visual-search-circle","113","728992","0.0-14.0-0.0-1.49","5f2dc04ae81ec50f0b8ea40f","619531dcf66c91622fa1b861","6195999b93c099a67b34744f","971.2000000476837","","d","true","[[559,450],[559,150],[300,0],[40,150],[40,449],[299,600]]","true","6","main_T2_Trial","d","img/Fire_Down_Target.gif","[""img/Fire_Up_Distractor.gif"",""img/Fire_Up_Distractor.gif"",""img/Fire_Up_Distractor.gif"",""img/Fire_Up_Distractor.gif"",""img/Fire_Up_Distractor.gif"",""img/Fire_Up_Distractor.gif"",""img/Fire_Up_Distractor.gif"",""img/Fire_Up_Distractor.gif"",""img/Fire_Up_Distractor.gif"",""img/Fire_Up_Distractor.gif"",""img/Fire_Up_Distractor.gif"",""img/Fire_Up_Distractor.gif""]","6","targetDown_distractorsUp"
"","","","","","html-keyboard-response","114","728996","0.0-14.0-0.0-0.50","5f2dc04ae81ec50f0b8ea40f","619531dcf66c91622fa1b861","6195999b93c099a67b34744f","null","","null","","","","","main_T1_ITI","","","","",""
"","","","","","visual-search-circle","115","731869","0.0-14.0-0.0-1.50","5f2dc04ae81ec50f0b8ea40f","619531dcf66c91622fa1b861","6195999b93c099a67b34744f","1864.9000000953674","","s","true","[[57,123],[25,422],[268,598],[542,476],[574,177],[331,1]]","false","6","main_T2_Trial","s","img/Fire_Down_Target.gif","[""img/Fire_Up_Distractor.gif"",""img/Fire_Up_Distractor.gif"",""img/Fire_Up_Distractor.gif"",""img/Fire_Up_Distractor.gif"",""img/Fire_Up_Distractor.gif"",""img/Fire_Up_Distractor.gif"",""img/Fire_Up_Distractor.gif"",""img/Fire_Up_Distractor.gif"",""img/Fire_Up_Distractor.gif"",""img/Fire_Up_Distractor.gif"",""img/Fire_Up_Distractor.gif"",""img/Fire_Up_Distractor.gif""]","6","targetDown_distractorsUp"
"","","","","","html-keyboard-response","116","731872","0.0-14.0-0.0-0.51","5f2dc04ae81ec50f0b8ea40f","619531dcf66c91622fa1b861","6195999b93c099a67b34744f","null","","null","","","","","main_T1_ITI","","","","",""
"","","","","","visual-search-circle","117","734264","0.0-14.0-0.0-1.51","5f2dc04ae81ec50f0b8ea40f","619531dcf66c91622fa1b861","6195999b93c099a67b34744f","1379.3999999761581","","d","false","[[247,4],[54,127],[4,352],[127,545],[352,595],[545,472],[595,247],[472,54]]","false","8","main_T2_Trial","s","img/Fire_Up_Target.gif","[""img/Fire_Down_Distractor.gif"",""img/Fire_Down_Distractor.gif"",""img/Fire_Down_Distractor.gif"",""img/Fire_Down_Distractor.gif"",""img/Fire_Down_Distractor.gif"",""img/Fire_Down_Distractor.gif"",""img/Fire_Down_Distractor.gif"",""img/Fire_Down_Distractor.gif"",""img/Fire_Down_Distractor.gif"",""img/Fire_Down_Distractor.gif"",""img/Fire_Down_Distractor.gif"",""img/Fire_Down_Distractor.gif""]","8","targetUp_distractorsDown"
"","","","","","html-keyboard-response","118","734266","0.0-14.0-0.0-0.52","5f2dc04ae81ec50f0b8ea40f","619531dcf66c91622fa1b861","6195999b93c099a67b34744f","null","","null","","","","","main_T1_ITI","","","","",""
"","","","","","visual-search-circle","119","736610","0.0-14.0-0.0-1.52","5f2dc04ae81ec50f0b8ea40f","619531dcf66c91622fa1b861","6195999b93c099a67b34744f","1332.7000000476837","","d","true","[[480,60],[182,23],[2,263],[119,539],[417,576],[597,336]]","true","6","main_T2_Trial","d","img/Fire_Down_Target.gif","[""img/Fire_Up_Distractor.gif"",""img/Fire_Up_Distractor.gif"",""img/Fire_Up_Distractor.gif"",""img/Fire_Up_Distractor.gif"",""img/Fire_Up_Distractor.gif"",""img/Fire_Up_Distractor.gif"",""img/Fire_Up_Distractor.gif"",""img/Fire_Up_Distractor.gif"",""img/Fire_Up_Distractor.gif"",""img/Fire_Up_Distractor.gif"",""img/Fire_Up_Distractor.gif"",""img/Fire_Up_Distractor.gif""]","6","targetDown_distractorsUp"
"","","","","","html-keyboard-response","120","736613","0.0-14.0-0.0-0.53","5f2dc04ae81ec50f0b8ea40f","619531dcf66c91622fa1b861","6195999b93c099a67b34744f","null","","null","","","","","main_T1_ITI","","","","",""
"","","","","","visual-search-circle","121","738700","0.0-14.0-0.0-1.53","5f2dc04ae81ec50f0b8ea40f","619531dcf66c91622fa1b861","6195999b93c099a67b34744f","1078.7999999523163","","s","true","[[559,150],[300,0],[40,150],[40,450],[299,600],[559,450]]","false","6","main_T2_Trial","s","img/Fire_Up_Target.gif","[""img/Fire_Down_Distractor.gif"",""img/Fire_Down_Distractor.gif"",""img/Fire_Down_Distractor.gif"",""img/Fire_Down_Distractor.gif"",""img/Fire_Down_Distractor.gif"",""img/Fire_Down_Distractor.gif"",""img/Fire_Down_Distractor.gif"",""img/Fire_Down_Distractor.gif"",""img/Fire_Down_Distractor.gif"",""img/Fire_Down_Distractor.gif"",""img/Fire_Down_Distractor.gif"",""img/Fire_Down_Distractor.gif""]","6","targetUp_distractorsDown"
"","","","","","html-keyboard-response","122","738714","0.0-14.0-0.0-0.54","5f2dc04ae81ec50f0b8ea40f","619531dcf66c91622fa1b861","6195999b93c099a67b34744f","null","","null","","","","","main_T1_ITI","","","","",""
"","","","","","visual-search-circle","123","740661","0.0-14.0-0.0-1.54","5f2dc04ae81ec50f0b8ea40f","619531dcf66c91622fa1b861","6195999b93c099a67b34744f","935.4000000953674","","d","true","[[412,21],[152,38],[3,252],[78,501],[319,599],[546,471],[587,214]]","true","7","main_T2_Trial","d","img/Fire_Up_Target.gif","[""img/Fire_Down_Distractor.gif"",""img/Fire_Down_Distractor.gif"",""img/Fire_Down_Distractor.gif"",""img/Fire_Down_Distractor.gif"",""img/Fire_Down_Distractor.gif"",""img/Fire_Down_Distractor.gif"",""img/Fire_Down_Distractor.gif"",""img/Fire_Down_Distractor.gif"",""img/Fire_Down_Distractor.gif"",""img/Fire_Down_Distractor.gif"",""img/Fire_Down_Distractor.gif"",""img/Fire_Down_Distractor.gif""]","7","targetUp_distractorsDown"
"","","","","","html-keyboard-response","124","740690","0.0-14.0-0.0-0.55","5f2dc04ae81ec50f0b8ea40f","619531dcf66c91622fa1b861","6195999b93c099a67b34744f","null","","null","","","","","main_T1_ITI","","","","",""
"","","","","","visual-search-circle","125","742655","0.0-14.0-0.0-1.55","5f2dc04ae81ec50f0b8ea40f","619531dcf66c91622fa1b861","6195999b93c099a67b34744f","961.6000000238419","","s","true","[[515,508],[508,84],[84,91],[91,515]]","false","4","main_T2_Trial","s","img/Fire_Down_Target.gif","[""img/Fire_Up_Distractor.gif"",""img/Fire_Up_Distractor.gif"",""img/Fire_Up_Distractor.gif"",""img/Fire_Up_Distractor.gif"",""img/Fire_Up_Distractor.gif"",""img/Fire_Up_Distractor.gif"",""img/Fire_Up_Distractor.gif"",""img/Fire_Up_Distractor.gif"",""img/Fire_Up_Distractor.gif"",""img/Fire_Up_Distractor.gif"",""img/Fire_Up_Distractor.gif"",""img/Fire_Up_Distractor.gif""]","4","targetDown_distractorsUp"
"","","","","","html-keyboard-response","126","742664","0.0-14.0-0.0-0.56","5f2dc04ae81ec50f0b8ea40f","619531dcf66c91622fa1b861","6195999b93c099a67b34744f","null","","null","","","","","main_T1_ITI","","","","",""
"","","","","","visual-search-circle","127","744805","0.0-14.0-0.0-1.56","5f2dc04ae81ec50f0b8ea40f","619531dcf66c91622fa1b861","6195999b93c099a67b34744f","1134.3000000715256","","d","true","[[402,581],[599,289],[382,11],[51,132],[63,484]]","true","5","main_T2_Trial","d","img/Fire_Up_Target.gif","[""img/Fire_Down_Distractor.gif"",""img/Fire_Down_Distractor.gif"",""img/Fire_Down_Distractor.gif"",""img/Fire_Down_Distractor.gif"",""img/Fire_Down_Distractor.gif"",""img/Fire_Down_Distractor.gif"",""img/Fire_Down_Distractor.gif"",""img/Fire_Down_Distractor.gif"",""img/Fire_Down_Distractor.gif"",""img/Fire_Down_Distractor.gif"",""img/Fire_Down_Distractor.gif"",""img/Fire_Down_Distractor.gif""]","5","targetUp_distractorsDown"
"","","","","","html-keyboard-response","128","744807","0.0-14.0-0.0-0.57","5f2dc04ae81ec50f0b8ea40f","619531dcf66c91622fa1b861","6195999b93c099a67b34744f","null","","null","","","","","main_T1_ITI","","","","",""
"","","","","","visual-search-circle","129","747204","0.0-14.0-0.0-1.57","5f2dc04ae81ec50f0b8ea40f","619531dcf66c91622fa1b861","6195999b93c099a67b34744f","1391.2999999523163","","s","true","[[559,150],[150,40],[40,450],[450,559]]","false","4","main_T2_Trial","s","img/Fire_Down_Target.gif","[""img/Fire_Up_Distractor.gif"",""img/Fire_Up_Distractor.gif"",""img/Fire_Up_Distractor.gif"",""img/Fire_Up_Distractor.gif"",""img/Fire_Up_Distractor.gif"",""img/Fire_Up_Distractor.gif"",""img/Fire_Up_Distractor.gif"",""img/Fire_Up_Distractor.gif"",""img/Fire_Up_Distractor.gif"",""img/Fire_Up_Distractor.gif"",""img/Fire_Up_Distractor.gif"",""img/Fire_Up_Distractor.gif""]","4","targetDown_distractorsUp"
"","","","","","html-keyboard-response","130","747207","0.0-14.0-0.0-0.58","5f2dc04ae81ec50f0b8ea40f","619531dcf66c91622fa1b861","6195999b93c099a67b34744f","null","","null","","","","","main_T1_ITI","","","","",""
"","","","","","visual-search-circle","131","749359","0.0-14.0-0.0-1.58","5f2dc04ae81ec50f0b8ea40f","619531dcf66c91622fa1b861","6195999b93c099a67b34744f","1139.8000000715256","","d","true","[[70,492],[273,598],[492,529],[598,326],[529,107],[326,1],[107,70],[1,273]]","true","8","main_T2_Trial","d","img/Fire_Down_Target.gif","[""img/Fire_Up_Distractor.gif"",""img/Fire_Up_Distractor.gif"",""img/Fire_Up_Distractor.gif"",""img/Fire_Up_Distractor.gif"",""img/Fire_Up_Distractor.gif"",""img/Fire_Up_Distractor.gif"",""img/Fire_Up_Distractor.gif"",""img/Fire_Up_Distractor.gif"",""img/Fire_Up_Distractor.gif"",""img/Fire_Up_Distractor.gif"",""img/Fire_Up_Distractor.gif"",""img/Fire_Up_Distractor.gif""]","8","targetDown_distractorsUp"
"","","","","","html-keyboard-response","132","750791","0.0-14.0-0.0-0.59","5f2dc04ae81ec50f0b8ea40f","619531dcf66c91622fa1b861","6195999b93c099a67b34744f","1430.1999999284744","Wow! You've completed 60 out of 160 trials! </p> <p>  </p><p> Take a quick break, then press any key when you're ready to continue."," ","","","","","main_T1_ITI","","","","",""
"","","","","","visual-search-circle","133","754077","0.0-14.0-0.0-1.59","5f2dc04ae81ec50f0b8ea40f","619531dcf66c91622fa1b861","6195999b93c099a67b34744f","2277.1999999284744","","s","true","[[192,19],[0,315],[222,589],[551,463],[533,111]]","false","5","main_T2_Trial","s","img/Fire_Up_Target.gif","[""img/Fire_Down_Distractor.gif"",""img/Fire_Down_Distractor.gif"",""img/Fire_Down_Distractor.gif"",""img/Fire_Down_Distractor.gif"",""img/Fire_Down_Distractor.gif"",""img/Fire_Down_Distractor.gif"",""img/Fire_Down_Distractor.gif"",""img/Fire_Down_Distractor.gif"",""img/Fire_Down_Distractor.gif"",""img/Fire_Down_Distractor.gif"",""img/Fire_Down_Distractor.gif"",""img/Fire_Down_Distractor.gif""]","5","targetUp_distractorsDown"
"","","","","","html-keyboard-response","134","754090","0.0-14.0-0.0-0.60","5f2dc04ae81ec50f0b8ea40f","619531dcf66c91622fa1b861","6195999b93c099a67b34744f","null","","null","","","","","main_T1_ITI","","","","",""
"","","","","","visual-search-circle","135","756607","0.0-14.0-0.0-1.60","5f2dc04ae81ec50f0b8ea40f","619531dcf66c91622fa1b861","6195999b93c099a67b34744f","1503.6000000238419","","d","true","[[159,564],[419,575],[589,378],[541,122],[311,0],[73,103],[5,355]]","true","7","main_T2_Trial","d","img/Fire_Up_Target.gif","[""img/Fire_Down_Distractor.gif"",""img/Fire_Down_Distractor.gif"",""img/Fire_Down_Distractor.gif"",""img/Fire_Down_Distractor.gif"",""img/Fire_Down_Distractor.gif"",""img/Fire_Down_Distractor.gif"",""img/Fire_Down_Distractor.gif"",""img/Fire_Down_Distractor.gif"",""img/Fire_Down_Distractor.gif"",""img/Fire_Down_Distractor.gif"",""img/Fire_Down_Distractor.gif"",""img/Fire_Down_Distractor.gif""]","7","targetUp_distractorsDown"
"","","","","","html-keyboard-response","136","756611","0.0-14.0-0.0-0.61","5f2dc04ae81ec50f0b8ea40f","619531dcf66c91622fa1b861","6195999b93c099a67b34744f","null","","null","","","","","main_T1_ITI","","","","",""
"","","","","","visual-search-circle","137","758975","0.0-14.0-0.0-1.61","5f2dc04ae81ec50f0b8ea40f","619531dcf66c91622fa1b861","6195999b93c099a67b34744f","1354.1000000238419","","d","true","[[273,1],[50,134],[14,391],[193,580],[453,557],[597,341],[517,93]]","true","7","main_T2_Trial","d","img/Fire_Up_Target.gif","[""img/Fire_Down_Distractor.gif"",""img/Fire_Down_Distractor.gif"",""img/Fire_Down_Distractor.gif"",""img/Fire_Down_Distractor.gif"",""img/Fire_Down_Distractor.gif"",""img/Fire_Down_Distractor.gif"",""img/Fire_Down_Distractor.gif"",""img/Fire_Down_Distractor.gif"",""img/Fire_Down_Distractor.gif"",""img/Fire_Down_Distractor.gif"",""img/Fire_Down_Distractor.gif"",""img/Fire_Down_Distractor.gif""]","7","targetUp_distractorsDown"
"","","","","","html-keyboard-response","138","758983","0.0-14.0-0.0-0.62","5f2dc04ae81ec50f0b8ea40f","619531dcf66c91622fa1b861","6195999b93c099a67b34744f","null","","null","","","","","main_T1_ITI","","","","",""
"","","","","","visual-search-circle","139","761192","0.0-14.0-0.0-1.62","5f2dc04ae81ec50f0b8ea40f","619531dcf66c91622fa1b861","6195999b93c099a67b34744f","1199","","d","true","[[586,212],[367,7],[80,95],[13,387],[232,592],[519,504]]","true","6","main_T2_Trial","d","img/Fire_Up_Target.gif","[""img/Fire_Down_Distractor.gif"",""img/Fire_Down_Distractor.gif"",""img/Fire_Down_Distractor.gif"",""img/Fire_Down_Distractor.gif"",""img/Fire_Down_Distractor.gif"",""img/Fire_Down_Distractor.gif"",""img/Fire_Down_Distractor.gif"",""img/Fire_Down_Distractor.gif"",""img/Fire_Down_Distractor.gif"",""img/Fire_Down_Distractor.gif"",""img/Fire_Down_Distractor.gif"",""img/Fire_Down_Distractor.gif""]","6","targetUp_distractorsDown"
"","","","","","html-keyboard-response","140","761218","0.0-14.0-0.0-0.63","5f2dc04ae81ec50f0b8ea40f","619531dcf66c91622fa1b861","6195999b93c099a67b34744f","null","","null","","","","","main_T1_ITI","","","","",""
"","","","","","visual-search-circle","141","763577","0.0-14.0-0.0-1.63","5f2dc04ae81ec50f0b8ea40f","619531dcf66c91622fa1b861","6195999b93c099a67b34744f","1346.7999999523163","","d","true","[[6,362],[136,551],[362,593],[551,463],[593,237],[463,48],[237,6],[48,136]]","true","8","main_T2_Trial","d","img/Fire_Up_Target.gif","[""img/Fire_Down_Distractor.gif"",""img/Fire_Down_Distractor.gif"",""img/Fire_Down_Distractor.gif"",""img/Fire_Down_Distractor.gif"",""img/Fire_Down_Distractor.gif"",""img/Fire_Down_Distractor.gif"",""img/Fire_Down_Distractor.gif"",""img/Fire_Down_Distractor.gif"",""img/Fire_Down_Distractor.gif"",""img/Fire_Down_Distractor.gif"",""img/Fire_Down_Distractor.gif"",""img/Fire_Down_Distractor.gif""]","8","targetUp_distractorsDown"
"","","","","","html-keyboard-response","142","763586","0.0-14.0-0.0-0.64","5f2dc04ae81ec50f0b8ea40f","619531dcf66c91622fa1b861","6195999b93c099a67b34744f","null","","null","","","","","main_T1_ITI","","","","",""
"","","","","","visual-search-circle","143","765634","0.0-14.0-0.0-1.64","5f2dc04ae81ec50f0b8ea40f","619531dcf66c91622fa1b861","6195999b93c099a67b34744f","1035.8999999761581","","s","true","[[0,310],[121,540],[376,589],[574,420],[565,160],[356,5],[104,72]]","false","7","main_T2_Trial","s","img/Fire_Up_Target.gif","[""img/Fire_Down_Distractor.gif"",""img/Fire_Down_Distractor.gif"",""img/Fire_Down_Distractor.gif"",""img/Fire_Down_Distractor.gif"",""img/Fire_Down_Distractor.gif"",""img/Fire_Down_Distractor.gif"",""img/Fire_Down_Distractor.gif"",""img/Fire_Down_Distractor.gif"",""img/Fire_Down_Distractor.gif"",""img/Fire_Down_Distractor.gif"",""img/Fire_Down_Distractor.gif"",""img/Fire_Down_Distractor.gif""]","7","targetUp_distractorsDown"
"","","","","","html-keyboard-response","144","765652","0.0-14.0-0.0-0.65","5f2dc04ae81ec50f0b8ea40f","619531dcf66c91622fa1b861","6195999b93c099a67b34744f","null","","null","","","","","main_T1_ITI","","","","",""
"","","","","","visual-search-circle","145","768073","0.0-14.0-0.0-1.65","5f2dc04ae81ec50f0b8ea40f","619531dcf66c91622fa1b861","6195999b93c099a67b34744f","1407","","s","false","[[588,217],[445,37],[217,11],[37,154],[11,382],[154,562],[382,588],[562,445]]","true","8","main_T2_Trial","d","img/Fire_Down_Target.gif","[""img/Fire_Up_Distractor.gif"",""img/Fire_Up_Distractor.gif"",""img/Fire_Up_Distractor.gif"",""img/Fire_Up_Distractor.gif"",""img/Fire_Up_Distractor.gif"",""img/Fire_Up_Distractor.gif"",""img/Fire_Up_Distractor.gif"",""img/Fire_Up_Distractor.gif"",""img/Fire_Up_Distractor.gif"",""img/Fire_Up_Distractor.gif"",""img/Fire_Up_Distractor.gif"",""img/Fire_Up_Distractor.gif""]","8","targetDown_distractorsUp"
"","","","","","html-keyboard-response","146","768089","0.0-14.0-0.0-0.66","5f2dc04ae81ec50f0b8ea40f","619531dcf66c91622fa1b861","6195999b93c099a67b34744f","null","","null","","","","","main_T1_ITI","","","","",""
"","","","","","visual-search-circle","147","771175","0.0-14.0-0.0-1.66","5f2dc04ae81ec50f0b8ea40f","619531dcf66c91622fa1b861","6195999b93c099a67b34744f","2069.100000023842","","s","false","[[522,99],[315,0],[99,77],[0,284],[77,500],[284,599],[500,522],[599,315]]","true","8","main_T2_Trial","d","img/Fire_Up_Target.gif","[""img/Fire_Down_Distractor.gif"",""img/Fire_Down_Distractor.gif"",""img/Fire_Down_Distractor.gif"",""img/Fire_Down_Distractor.gif"",""img/Fire_Down_Distractor.gif"",""img/Fire_Down_Distractor.gif"",""img/Fire_Down_Distractor.gif"",""img/Fire_Down_Distractor.gif"",""img/Fire_Down_Distractor.gif"",""img/Fire_Down_Distractor.gif"",""img/Fire_Down_Distractor.gif"",""img/Fire_Down_Distractor.gif""]","8","targetUp_distractorsDown"
"","","","","","html-keyboard-response","148","771189","0.0-14.0-0.0-0.67","5f2dc04ae81ec50f0b8ea40f","619531dcf66c91622fa1b861","6195999b93c099a67b34744f","null","","null","","","","","main_T1_ITI","","","","",""
"","","","","","visual-search-circle","149","773660","0.0-14.0-0.0-1.67","5f2dc04ae81ec50f0b8ea40f","619531dcf66c91622fa1b861","6195999b93c099a67b34744f","1463.8000000715256","","s","true","[[336,597],[597,263],[263,2],[2,336]]","false","4","main_T2_Trial","s","img/Fire_Down_Target.gif","[""img/Fire_Up_Distractor.gif"",""img/Fire_Up_Distractor.gif"",""img/Fire_Up_Distractor.gif"",""img/Fire_Up_Distractor.gif"",""img/Fire_Up_Distractor.gif"",""img/Fire_Up_Distractor.gif"",""img/Fire_Up_Distractor.gif"",""img/Fire_Up_Distractor.gif"",""img/Fire_Up_Distractor.gif"",""img/Fire_Up_Distractor.gif"",""img/Fire_Up_Distractor.gif"",""img/Fire_Up_Distractor.gif""]","4","targetDown_distractorsUp"
"","","","","","html-keyboard-response","150","773678","0.0-14.0-0.0-0.68","5f2dc04ae81ec50f0b8ea40f","619531dcf66c91622fa1b861","6195999b93c099a67b34744f","null","","null","","","","","main_T1_ITI","","","","",""
"","","","","","visual-search-circle","151","775954","0.0-14.0-0.0-1.68","5f2dc04ae81ec50f0b8ea40f","619531dcf66c91622fa1b861","6195999b93c099a67b34744f","1266.1999999284744","","d","true","[[2,336],[142,555],[401,582],[584,396],[552,137],[330,1],[85,89]]","true","7","main_T2_Trial","d","img/Fire_Down_Target.gif","[""img/Fire_Up_Distractor.gif"",""img/Fire_Up_Distractor.gif"",""img/Fire_Up_Distractor.gif"",""img/Fire_Up_Distractor.gif"",""img/Fire_Up_Distractor.gif"",""img/Fire_Up_Distractor.gif"",""img/Fire_Up_Distractor.gif"",""img/Fire_Up_Distractor.gif"",""img/Fire_Up_Distractor.gif"",""img/Fire_Up_Distractor.gif"",""img/Fire_Up_Distractor.gif"",""img/Fire_Up_Distractor.gif""]","7","targetDown_distractorsUp"
"","","","","","html-keyboard-response","152","775970","0.0-14.0-0.0-0.69","5f2dc04ae81ec50f0b8ea40f","619531dcf66c91622fa1b861","6195999b93c099a67b34744f","null","","null","","","","","main_T1_ITI","","","","",""
"","","","","","visual-search-circle","153","778466","0.0-14.0-0.0-1.69","5f2dc04ae81ec50f0b8ea40f","619531dcf66c91622fa1b861","6195999b93c099a67b34744f","1486","","s","true","[[25,177],[33,438],[242,594],[493,528],[599,291],[479,59],[224,9]]","false","7","main_T2_Trial","s","img/Fire_Up_Target.gif","[""img/Fire_Down_Distractor.gif"",""img/Fire_Down_Distractor.gif"",""img/Fire_Down_Distractor.gif"",""img/Fire_Down_Distractor.gif"",""img/Fire_Down_Distractor.gif"",""img/Fire_Down_Distractor.gif"",""img/Fire_Down_Distractor.gif"",""img/Fire_Down_Distractor.gif"",""img/Fire_Down_Distractor.gif"",""img/Fire_Down_Distractor.gif"",""img/Fire_Down_Distractor.gif"",""img/Fire_Down_Distractor.gif""]","7","targetUp_distractorsDown"
"","","","","","html-keyboard-response","154","778469","0.0-14.0-0.0-0.70","5f2dc04ae81ec50f0b8ea40f","619531dcf66c91622fa1b861","6195999b93c099a67b34744f","null","","null","","","","","main_T1_ITI","","","","",""
"","","","","","visual-search-circle","155","780910","0.0-14.0-0.0-1.70","5f2dc04ae81ec50f0b8ea40f","619531dcf66c91622fa1b861","6195999b93c099a67b34744f","1433.3999999761581","","d","true","[[73,496],[417,576],[598,273],[367,7],[42,145]]","true","5","main_T2_Trial","d","img/Fire_Down_Target.gif","[""img/Fire_Up_Distractor.gif"",""img/Fire_Up_Distractor.gif"",""img/Fire_Up_Distractor.gif"",""img/Fire_Up_Distractor.gif"",""img/Fire_Up_Distractor.gif"",""img/Fire_Up_Distractor.gif"",""img/Fire_Up_Distractor.gif"",""img/Fire_Up_Distractor.gif"",""img/Fire_Up_Distractor.gif"",""img/Fire_Up_Distractor.gif"",""img/Fire_Up_Distractor.gif"",""img/Fire_Up_Distractor.gif""]","5","targetDown_distractorsUp"
"","","","","","html-keyboard-response","156","780948","0.0-14.0-0.0-0.71","5f2dc04ae81ec50f0b8ea40f","619531dcf66c91622fa1b861","6195999b93c099a67b34744f","null","","null","","","","","main_T1_ITI","","","","",""
"","","","","","visual-search-circle","157","783888","0.0-14.0-0.0-1.71","5f2dc04ae81ec50f0b8ea40f","619531dcf66c91622fa1b861","6195999b93c099a67b34744f","1927.3000000715256","","d","true","[[362,6],[136,48],[6,237],[48,463],[237,593],[463,551],[593,362],[551,136]]","true","8","main_T2_Trial","d","img/Fire_Up_Target.gif","[""img/Fire_Down_Distractor.gif"",""img/Fire_Down_Distractor.gif"",""img/Fire_Down_Distractor.gif"",""img/Fire_Down_Distractor.gif"",""img/Fire_Down_Distractor.gif"",""img/Fire_Down_Distractor.gif"",""img/Fire_Down_Distractor.gif"",""img/Fire_Down_Distractor.gif"",""img/Fire_Down_Distractor.gif"",""img/Fire_Down_Distractor.gif"",""img/Fire_Down_Distractor.gif"",""img/Fire_Down_Distractor.gif""]","8","targetUp_distractorsDown"
"","","","","","html-keyboard-response","158","783892","0.0-14.0-0.0-0.72","5f2dc04ae81ec50f0b8ea40f","619531dcf66c91622fa1b861","6195999b93c099a67b34744f","null","","null","","","","","main_T1_ITI","","","","",""
"","","","","","visual-search-circle","159","786219","0.0-14.0-0.0-1.72","5f2dc04ae81ec50f0b8ea40f","619531dcf66c91622fa1b861","6195999b93c099a67b34744f","1319","","s","true","[[598,326],[417,23],[73,103],[42,454],[367,592]]","false","5","main_T2_Trial","s","img/Fire_Down_Target.gif","[""img/Fire_Up_Distractor.gif"",""img/Fire_Up_Distractor.gif"",""img/Fire_Up_Distractor.gif"",""img/Fire_Up_Distractor.gif"",""img/Fire_Up_Distractor.gif"",""img/Fire_Up_Distractor.gif"",""img/Fire_Up_Distractor.gif"",""img/Fire_Up_Distractor.gif"",""img/Fire_Up_Distractor.gif"",""img/Fire_Up_Distractor.gif"",""img/Fire_Up_Distractor.gif"",""img/Fire_Up_Distractor.gif""]","5","targetDown_distractorsUp"
"","","","","","html-keyboard-response","160","786235","0.0-14.0-0.0-0.73","5f2dc04ae81ec50f0b8ea40f","619531dcf66c91622fa1b861","6195999b93c099a67b34744f","null","","null","","","","","main_T1_ITI","","","","",""
"","","","","","visual-search-circle","161","788475","0.0-14.0-0.0-1.73","5f2dc04ae81ec50f0b8ea40f","619531dcf66c91622fa1b861","6195999b93c099a67b34744f","1226.6999999284744","","s","true","[[10,222],[40,450],[222,589],[450,559],[589,377],[559,150],[377,10],[150,40]]","false","8","main_T2_Trial","s","img/Fire_Down_Target.gif","[""img/Fire_Up_Distractor.gif"",""img/Fire_Up_Distractor.gif"",""img/Fire_Up_Distractor.gif"",""img/Fire_Up_Distractor.gif"",""img/Fire_Up_Distractor.gif"",""img/Fire_Up_Distractor.gif"",""img/Fire_Up_Distractor.gif"",""img/Fire_Up_Distractor.gif"",""img/Fire_Up_Distractor.gif"",""img/Fire_Up_Distractor.gif"",""img/Fire_Up_Distractor.gif"",""img/Fire_Up_Distractor.gif""]","8","targetDown_distractorsUp"
"","","","","","html-keyboard-response","162","788500","0.0-14.0-0.0-0.74","5f2dc04ae81ec50f0b8ea40f","619531dcf66c91622fa1b861","6195999b93c099a67b34744f","null","","null","","","","","main_T1_ITI","","","","",""
"","","","","","visual-search-circle","163","791177","0.0-14.0-0.0-1.74","5f2dc04ae81ec50f0b8ea40f","619531dcf66c91622fa1b861","6195999b93c099a67b34744f","1666.6000000238419","","d","true","[[145,42],[2,260],[83,507],[327,598],[550,464],[585,206],[404,18]]","true","7","main_T2_Trial","d","img/Fire_Up_Target.gif","[""img/Fire_Down_Distractor.gif"",""img/Fire_Down_Distractor.gif"",""img/Fire_Down_Distractor.gif"",""img/Fire_Down_Distractor.gif"",""img/Fire_Down_Distractor.gif"",""img/Fire_Down_Distractor.gif"",""img/Fire_Down_Distractor.gif"",""img/Fire_Down_Distractor.gif"",""img/Fire_Down_Distractor.gif"",""img/Fire_Down_Distractor.gif"",""img/Fire_Down_Distractor.gif"",""img/Fire_Down_Distractor.gif""]","7","targetUp_distractorsDown"
"","","","","","html-keyboard-response","164","791202","0.0-14.0-0.0-0.75","5f2dc04ae81ec50f0b8ea40f","619531dcf66c91622fa1b861","6195999b93c099a67b34744f","null","","null","","","","","main_T1_ITI","","","","",""
"","","","","","visual-search-circle","165","793982","0.0-14.0-0.0-1.75","5f2dc04ae81ec50f0b8ea40f","619531dcf66c91622fa1b861","6195999b93c099a67b34744f","1766.9000000953674","","s","true","[[227,8],[42,145],[8,372],[145,557],[372,591],[557,454],[591,227],[454,42]]","false","8","main_T2_Trial","s","img/Fire_Up_Target.gif","[""img/Fire_Down_Distractor.gif"",""img/Fire_Down_Distractor.gif"",""img/Fire_Down_Distractor.gif"",""img/Fire_Down_Distractor.gif"",""img/Fire_Down_Distractor.gif"",""img/Fire_Down_Distractor.gif"",""img/Fire_Down_Distractor.gif"",""img/Fire_Down_Distractor.gif"",""img/Fire_Down_Distractor.gif"",""img/Fire_Down_Distractor.gif"",""img/Fire_Down_Distractor.gif"",""img/Fire_Down_Distractor.gif""]","8","targetUp_distractorsDown"
"","","","","","html-keyboard-response","166","793987","0.0-14.0-0.0-0.76","5f2dc04ae81ec50f0b8ea40f","619531dcf66c91622fa1b861","6195999b93c099a67b34744f","null","","null","","","","","main_T1_ITI","","","","",""
"","","","","","visual-search-circle","167","796379","0.0-14.0-0.0-1.76","5f2dc04ae81ec50f0b8ea40f","619531dcf66c91622fa1b861","6195999b93c099a67b34744f","1386.1000000238419","","d","true","[[585,392],[392,14],[14,207],[207,585]]","true","4","main_T2_Trial","d","img/Fire_Down_Target.gif","[""img/Fire_Up_Distractor.gif"",""img/Fire_Up_Distractor.gif"",""img/Fire_Up_Distractor.gif"",""img/Fire_Up_Distractor.gif"",""img/Fire_Up_Distractor.gif"",""img/Fire_Up_Distractor.gif"",""img/Fire_Up_Distractor.gif"",""img/Fire_Up_Distractor.gif"",""img/Fire_Up_Distractor.gif"",""img/Fire_Up_Distractor.gif"",""img/Fire_Up_Distractor.gif"",""img/Fire_Up_Distractor.gif""]","4","targetDown_distractorsUp"
"","","","","","html-keyboard-response","168","796408","0.0-14.0-0.0-0.77","5f2dc04ae81ec50f0b8ea40f","619531dcf66c91622fa1b861","6195999b93c099a67b34744f","null","","null","","","","","main_T1_ITI","","","","",""
"","","","","","visual-search-circle","169","799354","0.0-14.0-0.0-1.77","5f2dc04ae81ec50f0b8ea40f","619531dcf66c91622fa1b861","6195999b93c099a67b34744f","1935.8999999761581","","s","true","[[591,372],[538,117],[305,0],[69,108],[6,360],[164,567],[424,572]]","false","7","main_T2_Trial","s","img/Fire_Up_Target.gif","[""img/Fire_Down_Distractor.gif"",""img/Fire_Down_Distractor.gif"",""img/Fire_Down_Distractor.gif"",""img/Fire_Down_Distractor.gif"",""img/Fire_Down_Distractor.gif"",""img/Fire_Down_Distractor.gif"",""img/Fire_Down_Distractor.gif"",""img/Fire_Down_Distractor.gif"",""img/Fire_Down_Distractor.gif"",""img/Fire_Down_Distractor.gif"",""img/Fire_Down_Distractor.gif"",""img/Fire_Down_Distractor.gif""]","7","targetUp_distractorsDown"
"","","","","","html-keyboard-response","170","799370","0.0-14.0-0.0-0.78","5f2dc04ae81ec50f0b8ea40f","619531dcf66c91622fa1b861","6195999b93c099a67b34744f","null","","null","","","","","main_T1_ITI","","","","",""
"","","","","","visual-search-circle","171","801290","0.0-14.0-0.0-1.78","5f2dc04ae81ec50f0b8ea40f","619531dcf66c91622fa1b861","6195999b93c099a67b34744f","908.8999999761581","","d","true","[[402,581],[584,395],[552,137],[329,1],[85,90],[2,337],[143,555]]","true","7","main_T2_Trial","d","img/Fire_Down_Target.gif","[""img/Fire_Up_Distractor.gif"",""img/Fire_Up_Distractor.gif"",""img/Fire_Up_Distractor.gif"",""img/Fire_Up_Distractor.gif"",""img/Fire_Up_Distractor.gif"",""img/Fire_Up_Distractor.gif"",""img/Fire_Up_Distractor.gif"",""img/Fire_Up_Distractor.gif"",""img/Fire_Up_Distractor.gif"",""img/Fire_Up_Distractor.gif"",""img/Fire_Up_Distractor.gif"",""img/Fire_Up_Distractor.gif""]","7","targetDown_distractorsUp"
"","","","","","html-keyboard-response","172","802735","0.0-14.0-0.0-0.79","5f2dc04ae81ec50f0b8ea40f","619531dcf66c91622fa1b861","6195999b93c099a67b34744f","1443","Wow! You've completed 80 out of 160 trials! </p> <p>  </p><p> Take a quick break, then press any key when you're ready to continue."," ","","","","","main_T1_ITI","","","","",""
"","","","","","visual-search-circle","173","805214","0.0-14.0-0.0-1.79","5f2dc04ae81ec50f0b8ea40f","619531dcf66c91622fa1b861","6195999b93c099a67b34744f","1471.3999999761581","","s","true","[[578,187],[279,0],[8,227],[141,554],[492,529]]","false","5","main_T2_Trial","s","img/Fire_Up_Target.gif","[""img/Fire_Down_Distractor.gif"",""img/Fire_Down_Distractor.gif"",""img/Fire_Down_Distractor.gif"",""img/Fire_Down_Distractor.gif"",""img/Fire_Down_Distractor.gif"",""img/Fire_Down_Distractor.gif"",""img/Fire_Down_Distractor.gif"",""img/Fire_Down_Distractor.gif"",""img/Fire_Down_Distractor.gif"",""img/Fire_Down_Distractor.gif"",""img/Fire_Down_Distractor.gif"",""img/Fire_Down_Distractor.gif""]","5","targetUp_distractorsDown"
"","","","","","html-keyboard-response","174","805217","0.0-14.0-0.0-0.80","5f2dc04ae81ec50f0b8ea40f","619531dcf66c91622fa1b861","6195999b93c099a67b34744f","null","","null","","","","","main_T1_ITI","","","","",""
"","","","","","visual-search-circle","175","807759","0.0-14.0-0.0-1.80","5f2dc04ae81ec50f0b8ea40f","619531dcf66c91622fa1b861","6195999b93c099a67b34744f","1533.1000000238419","","s","true","[[496,73],[202,16],[5,242],[103,526],[397,583],[594,357]]","false","6","main_T2_Trial","s","img/Fire_Up_Target.gif","[""img/Fire_Down_Distractor.gif"",""img/Fire_Down_Distractor.gif"",""img/Fire_Down_Distractor.gif"",""img/Fire_Down_Distractor.gif"",""img/Fire_Down_Distractor.gif"",""img/Fire_Down_Distractor.gif"",""img/Fire_Down_Distractor.gif"",""img/Fire_Down_Distractor.gif"",""img/Fire_Down_Distractor.gif"",""img/Fire_Down_Distractor.gif"",""img/Fire_Down_Distractor.gif"",""img/Fire_Down_Distractor.gif""]","6","targetUp_distractorsDown"
"","","","","","html-keyboard-response","176","807761","0.0-14.0-0.0-0.81","5f2dc04ae81ec50f0b8ea40f","619531dcf66c91622fa1b861","6195999b93c099a67b34744f","null","","null","","","","","main_T1_ITI","","","","",""
"","","","","","visual-search-circle","177","809574","0.0-14.0-0.0-1.81","5f2dc04ae81ec50f0b8ea40f","619531dcf66c91622fa1b861","6195999b93c099a67b34744f","804.7000000476837","","d","true","[[548,132],[357,5],[132,51],[5,242],[51,467],[242,594],[467,548],[594,357]]","true","8","main_T2_Trial","d","img/Fire_Up_Target.gif","[""img/Fire_Down_Distractor.gif"",""img/Fire_Down_Distractor.gif"",""img/Fire_Down_Distractor.gif"",""img/Fire_Down_Distractor.gif"",""img/Fire_Down_Distractor.gif"",""img/Fire_Down_Distractor.gif"",""img/Fire_Down_Distractor.gif"",""img/Fire_Down_Distractor.gif"",""img/Fire_Down_Distractor.gif"",""img/Fire_Down_Distractor.gif"",""img/Fire_Down_Distractor.gif"",""img/Fire_Down_Distractor.gif""]","8","targetUp_distractorsDown"
"","","","","","html-keyboard-response","178","809590","0.0-14.0-0.0-0.82","5f2dc04ae81ec50f0b8ea40f","619531dcf66c91622fa1b861","6195999b93c099a67b34744f","null","","null","","","","","main_T1_ITI","","","","",""
"","","","","","visual-search-circle","179","811704","0.0-14.0-0.0-1.82","5f2dc04ae81ec50f0b8ea40f","619531dcf66c91622fa1b861","6195999b93c099a67b34744f","1104.1999999284744","","d","true","[[562,445],[557,145],[294,0],[37,154],[42,454],[305,599]]","true","6","main_T2_Trial","d","img/Fire_Down_Target.gif","[""img/Fire_Up_Distractor.gif"",""img/Fire_Up_Distractor.gif"",""img/Fire_Up_Distractor.gif"",""img/Fire_Up_Distractor.gif"",""img/Fire_Up_Distractor.gif"",""img/Fire_Up_Distractor.gif"",""img/Fire_Up_Distractor.gif"",""img/Fire_Up_Distractor.gif"",""img/Fire_Up_Distractor.gif"",""img/Fire_Up_Distractor.gif"",""img/Fire_Up_Distractor.gif"",""img/Fire_Up_Distractor.gif""]","6","targetDown_distractorsUp"
"","","","","","html-keyboard-response","180","811706","0.0-14.0-0.0-0.83","5f2dc04ae81ec50f0b8ea40f","619531dcf66c91622fa1b861","6195999b93c099a67b34744f","null","","null","","","","","main_T1_ITI","","","","",""
"","","","","","visual-search-circle","181","813941","0.0-14.0-0.0-1.83","5f2dc04ae81ec50f0b8ea40f","619531dcf66c91622fa1b861","6195999b93c099a67b34744f","1224.2999999523163","","d","true","[[95,80],[7,367],[212,586],[504,519],[592,232],[387,13]]","true","6","main_T2_Trial","d","img/Fire_Down_Target.gif","[""img/Fire_Up_Distractor.gif"",""img/Fire_Up_Distractor.gif"",""img/Fire_Up_Distractor.gif"",""img/Fire_Up_Distractor.gif"",""img/Fire_Up_Distractor.gif"",""img/Fire_Up_Distractor.gif"",""img/Fire_Up_Distractor.gif"",""img/Fire_Up_Distractor.gif"",""img/Fire_Up_Distractor.gif"",""img/Fire_Up_Distractor.gif"",""img/Fire_Up_Distractor.gif"",""img/Fire_Up_Distractor.gif""]","6","targetDown_distractorsUp"
"","","","","","html-keyboard-response","182","813981","0.0-14.0-0.0-0.84","5f2dc04ae81ec50f0b8ea40f","619531dcf66c91622fa1b861","6195999b93c099a67b34744f","null","","null","","","","","main_T1_ITI","","","","",""
"","","","","","visual-search-circle","183","816517","0.0-14.0-0.0-1.84","5f2dc04ae81ec50f0b8ea40f","619531dcf66c91622fa1b861","6195999b93c099a67b34744f","1527.3000000715256","","d","true","[[488,66],[136,48],[10,377],[284,599],[580,407]]","true","5","main_T2_Trial","d","img/Fire_Up_Target.gif","[""img/Fire_Down_Distractor.gif"",""img/Fire_Down_Distractor.gif"",""img/Fire_Down_Distractor.gif"",""img/Fire_Down_Distractor.gif"",""img/Fire_Down_Distractor.gif"",""img/Fire_Down_Distractor.gif"",""img/Fire_Down_Distractor.gif"",""img/Fire_Down_Distractor.gif"",""img/Fire_Down_Distractor.gif"",""img/Fire_Down_Distractor.gif"",""img/Fire_Down_Distractor.gif"",""img/Fire_Down_Distractor.gif""]","5","targetUp_distractorsDown"
"","","","","","html-keyboard-response","184","816551","0.0-14.0-0.0-0.85","5f2dc04ae81ec50f0b8ea40f","619531dcf66c91622fa1b861","6195999b93c099a67b34744f","null","","null","","","","","main_T1_ITI","","","","",""
"","","","","","visual-search-circle","185","818590","0.0-14.0-0.0-1.85","5f2dc04ae81ec50f0b8ea40f","619531dcf66c91622fa1b861","6195999b93c099a67b34744f","1014.6000000238419","","s","true","[[539,480],[597,258],[480,60],[258,2],[60,119],[2,341],[119,539],[341,597]]","false","8","main_T2_Trial","s","img/Fire_Down_Target.gif","[""img/Fire_Up_Distractor.gif"",""img/Fire_Up_Distractor.gif"",""img/Fire_Up_Distractor.gif"",""img/Fire_Up_Distractor.gif"",""img/Fire_Up_Distractor.gif"",""img/Fire_Up_Distractor.gif"",""img/Fire_Up_Distractor.gif"",""img/Fire_Up_Distractor.gif"",""img/Fire_Up_Distractor.gif"",""img/Fire_Up_Distractor.gif"",""img/Fire_Up_Distractor.gif"",""img/Fire_Up_Distractor.gif""]","8","targetDown_distractorsUp"
"","","","","","html-keyboard-response","186","818594","0.0-14.0-0.0-0.86","5f2dc04ae81ec50f0b8ea40f","619531dcf66c91622fa1b861","6195999b93c099a67b34744f","null","","null","","","","","main_T1_ITI","","","","",""
"","","","","","visual-search-circle","187","820843","0.0-14.0-0.0-1.86","5f2dc04ae81ec50f0b8ea40f","619531dcf66c91622fa1b861","6195999b93c099a67b34744f","1239.8999999761581","","d","true","[[73,103],[16,397],[242,594],[526,496],[583,202],[357,5]]","true","6","main_T2_Trial","d","img/Fire_Up_Target.gif","[""img/Fire_Down_Distractor.gif"",""img/Fire_Down_Distractor.gif"",""img/Fire_Down_Distractor.gif"",""img/Fire_Down_Distractor.gif"",""img/Fire_Down_Distractor.gif"",""img/Fire_Down_Distractor.gif"",""img/Fire_Down_Distractor.gif"",""img/Fire_Down_Distractor.gif"",""img/Fire_Down_Distractor.gif"",""img/Fire_Down_Distractor.gif"",""img/Fire_Down_Distractor.gif"",""img/Fire_Down_Distractor.gif""]","6","targetUp_distractorsDown"
"","","","","","html-keyboard-response","188","820847","0.0-14.0-0.0-0.87","5f2dc04ae81ec50f0b8ea40f","619531dcf66c91622fa1b861","6195999b93c099a67b34744f","null","","null","","","","","main_T1_ITI","","","","",""
"","","","","","visual-search-circle","189","823377","0.0-14.0-0.0-1.87","5f2dc04ae81ec50f0b8ea40f","619531dcf66c91622fa1b861","6195999b93c099a67b34744f","1522.8999999761581","","d","true","[[63,484],[484,536],[536,115],[115,63]]","true","4","main_T2_Trial","d","img/Fire_Up_Target.gif","[""img/Fire_Down_Distractor.gif"",""img/Fire_Down_Distractor.gif"",""img/Fire_Down_Distractor.gif"",""img/Fire_Down_Distractor.gif"",""img/Fire_Down_Distractor.gif"",""img/Fire_Down_Distractor.gif"",""img/Fire_Down_Distractor.gif"",""img/Fire_Down_Distractor.gif"",""img/Fire_Down_Distractor.gif"",""img/Fire_Down_Distractor.gif"",""img/Fire_Down_Distractor.gif"",""img/Fire_Down_Distractor.gif""]","4","targetUp_distractorsDown"
"","","","","","html-keyboard-response","190","823383","0.0-14.0-0.0-0.88","5f2dc04ae81ec50f0b8ea40f","619531dcf66c91622fa1b861","6195999b93c099a67b34744f","null","","null","","","","","main_T1_ITI","","","","",""
"","","","","","visual-search-circle","191","825703","0.0-14.0-0.0-1.88","5f2dc04ae81ec50f0b8ea40f","619531dcf66c91622fa1b861","6195999b93c099a67b34744f","1297.7000000476837","","d","true","[[492,70],[197,18],[4,247],[107,529],[402,581],[595,352]]","true","6","main_T2_Trial","d","img/Fire_Up_Target.gif","[""img/Fire_Down_Distractor.gif"",""img/Fire_Down_Distractor.gif"",""img/Fire_Down_Distractor.gif"",""img/Fire_Down_Distractor.gif"",""img/Fire_Down_Distractor.gif"",""img/Fire_Down_Distractor.gif"",""img/Fire_Down_Distractor.gif"",""img/Fire_Down_Distractor.gif"",""img/Fire_Down_Distractor.gif"",""img/Fire_Down_Distractor.gif"",""img/Fire_Down_Distractor.gif"",""img/Fire_Down_Distractor.gif""]","6","targetUp_distractorsDown"
"","","","","","html-keyboard-response","192","825713","0.0-14.0-0.0-0.89","5f2dc04ae81ec50f0b8ea40f","619531dcf66c91622fa1b861","6195999b93c099a67b34744f","null","","null","","","","","main_T1_ITI","","","","",""
"","","","","","visual-search-circle","193","827892","0.0-14.0-0.0-1.89","5f2dc04ae81ec50f0b8ea40f","619531dcf66c91622fa1b861","6195999b93c099a67b34744f","1169.4000000953674","","s","true","[[168,30],[0,279],[132,548],[431,569],[599,320],[467,51]]","false","6","main_T2_Trial","s","img/Fire_Down_Target.gif","[""img/Fire_Up_Distractor.gif"",""img/Fire_Up_Distractor.gif"",""img/Fire_Up_Distractor.gif"",""img/Fire_Up_Distractor.gif"",""img/Fire_Up_Distractor.gif"",""img/Fire_Up_Distractor.gif"",""img/Fire_Up_Distractor.gif"",""img/Fire_Up_Distractor.gif"",""img/Fire_Up_Distractor.gif"",""img/Fire_Up_Distractor.gif"",""img/Fire_Up_Distractor.gif"",""img/Fire_Up_Distractor.gif""]","6","targetDown_distractorsUp"
"","","","","","html-keyboard-response","194","827903","0.0-14.0-0.0-0.90","5f2dc04ae81ec50f0b8ea40f","619531dcf66c91622fa1b861","6195999b93c099a67b34744f","null","","null","","","","","main_T1_ITI","","","","",""
"","","","","","visual-search-circle","195","830078","0.0-14.0-0.0-1.90","5f2dc04ae81ec50f0b8ea40f","619531dcf66c91622fa1b861","6195999b93c099a67b34744f","1167","","d","true","[[310,599],[588,382],[467,51],[115,63],[18,402]]","true","5","main_T2_Trial","d","img/Fire_Down_Target.gif","[""img/Fire_Up_Distractor.gif"",""img/Fire_Up_Distractor.gif"",""img/Fire_Up_Distractor.gif"",""img/Fire_Up_Distractor.gif"",""img/Fire_Up_Distractor.gif"",""img/Fire_Up_Distractor.gif"",""img/Fire_Up_Distractor.gif"",""img/Fire_Up_Distractor.gif"",""img/Fire_Up_Distractor.gif"",""img/Fire_Up_Distractor.gif"",""img/Fire_Up_Distractor.gif"",""img/Fire_Up_Distractor.gif""]","5","targetDown_distractorsUp"
"","","","","","html-keyboard-response","196","830080","0.0-14.0-0.0-0.91","5f2dc04ae81ec50f0b8ea40f","619531dcf66c91622fa1b861","6195999b93c099a67b34744f","null","","null","","","","","main_T1_ITI","","","","",""
"","","","","","visual-search-circle","197","832198","0.0-14.0-0.0-1.91","5f2dc04ae81ec50f0b8ea40f","619531dcf66c91622fa1b861","6195999b93c099a67b34744f","1108.5","","s","true","[[35,159],[45,458],[310,599],[564,440],[554,141],[289,0]]","false","6","main_T2_Trial","s","img/Fire_Down_Target.gif","[""img/Fire_Up_Distractor.gif"",""img/Fire_Up_Distractor.gif"",""img/Fire_Up_Distractor.gif"",""img/Fire_Up_Distractor.gif"",""img/Fire_Up_Distractor.gif"",""img/Fire_Up_Distractor.gif"",""img/Fire_Up_Distractor.gif"",""img/Fire_Up_Distractor.gif"",""img/Fire_Up_Distractor.gif"",""img/Fire_Up_Distractor.gif"",""img/Fire_Up_Distractor.gif"",""img/Fire_Up_Distractor.gif""]","6","targetDown_distractorsUp"
"","","","","","html-keyboard-response","198","832200","0.0-14.0-0.0-0.92","5f2dc04ae81ec50f0b8ea40f","619531dcf66c91622fa1b861","6195999b93c099a67b34744f","null","","null","","","","","main_T1_ITI","","","","",""
"","","","","","visual-search-circle","199","836213","0.0-14.0-0.0-1.92","5f2dc04ae81ec50f0b8ea40f","619531dcf66c91622fa1b861","6195999b93c099a67b34744f","3000.399999976158","","d","true","[[232,7],[45,141],[7,367],[141,554],[367,592],[554,458],[592,232],[458,45]]","true","8","main_T2_Trial","d","img/Fire_Down_Target.gif","[""img/Fire_Up_Distractor.gif"",""img/Fire_Up_Distractor.gif"",""img/Fire_Up_Distractor.gif"",""img/Fire_Up_Distractor.gif"",""img/Fire_Up_Distractor.gif"",""img/Fire_Up_Distractor.gif"",""img/Fire_Up_Distractor.gif"",""img/Fire_Up_Distractor.gif"",""img/Fire_Up_Distractor.gif"",""img/Fire_Up_Distractor.gif"",""img/Fire_Up_Distractor.gif"",""img/Fire_Up_Distractor.gif""]","8","targetDown_distractorsUp"
"","","","","","html-keyboard-response","200","836244","0.0-14.0-0.0-0.93","5f2dc04ae81ec50f0b8ea40f","619531dcf66c91622fa1b861","6195999b93c099a67b34744f","null","","null","","","","","main_T1_ITI","","","","",""
"","","","","","visual-search-circle","201","838264","0.0-14.0-0.0-1.93","5f2dc04ae81ec50f0b8ea40f","619531dcf66c91622fa1b861","6195999b93c099a67b34744f","1008.7000000476837","","s","true","[[2,341],[147,558],[406,580],[585,391],[549,133],[325,1],[82,93]]","false","7","main_T2_Trial","s","img/Fire_Down_Target.gif","[""img/Fire_Up_Distractor.gif"",""img/Fire_Up_Distractor.gif"",""img/Fire_Up_Distractor.gif"",""img/Fire_Up_Distractor.gif"",""img/Fire_Up_Distractor.gif"",""img/Fire_Up_Distractor.gif"",""img/Fire_Up_Distractor.gif"",""img/Fire_Up_Distractor.gif"",""img/Fire_Up_Distractor.gif"",""img/Fire_Up_Distractor.gif"",""img/Fire_Up_Distractor.gif"",""img/Fire_Up_Distractor.gif""]","7","targetDown_distractorsUp"
"","","","","","html-keyboard-response","202","838266","0.0-14.0-0.0-0.94","5f2dc04ae81ec50f0b8ea40f","619531dcf66c91622fa1b861","6195999b93c099a67b34744f","null","","null","","","","","main_T1_ITI","","","","",""
"","","","","","visual-search-circle","203","840409","0.0-14.0-0.0-1.94","5f2dc04ae81ec50f0b8ea40f","619531dcf66c91622fa1b861","6195999b93c099a67b34744f","1138.0999999046326","","d","true","[[197,18],[4,247],[107,529],[402,581],[595,352],[492,70]]","true","6","main_T2_Trial","d","img/Fire_Up_Target.gif","[""img/Fire_Down_Distractor.gif"",""img/Fire_Down_Distractor.gif"",""img/Fire_Down_Distractor.gif"",""img/Fire_Down_Distractor.gif"",""img/Fire_Down_Distractor.gif"",""img/Fire_Down_Distractor.gif"",""img/Fire_Down_Distractor.gif"",""img/Fire_Down_Distractor.gif"",""img/Fire_Down_Distractor.gif"",""img/Fire_Down_Distractor.gif"",""img/Fire_Down_Distractor.gif"",""img/Fire_Down_Distractor.gif""]","6","targetUp_distractorsDown"
"","","","","","html-keyboard-response","204","840411","0.0-14.0-0.0-0.95","5f2dc04ae81ec50f0b8ea40f","619531dcf66c91622fa1b861","6195999b93c099a67b34744f","null","","null","","","","","main_T1_ITI","","","","",""
"","","","","","visual-search-circle","205","843200","0.0-14.0-0.0-1.95","5f2dc04ae81ec50f0b8ea40f","619531dcf66c91622fa1b861","6195999b93c099a67b34744f","1783","","s","false","[[496,73],[245,4],[35,158],[24,418],[220,589],[476,542],[599,312]]","true","7","main_T2_Trial","d","img/Fire_Down_Target.gif","[""img/Fire_Up_Distractor.gif"",""img/Fire_Up_Distractor.gif"",""img/Fire_Up_Distractor.gif"",""img/Fire_Up_Distractor.gif"",""img/Fire_Up_Distractor.gif"",""img/Fire_Up_Distractor.gif"",""img/Fire_Up_Distractor.gif"",""img/Fire_Up_Distractor.gif"",""img/Fire_Up_Distractor.gif"",""img/Fire_Up_Distractor.gif"",""img/Fire_Up_Distractor.gif"",""img/Fire_Up_Distractor.gif""]","7","targetDown_distractorsUp"
"","","","","","html-keyboard-response","206","843223","0.0-14.0-0.0-0.96","5f2dc04ae81ec50f0b8ea40f","619531dcf66c91622fa1b861","6195999b93c099a67b34744f","null","","null","","","","","main_T1_ITI","","","","",""
"","","","","","visual-search-circle","207","845444","0.0-14.0-0.0-1.96","5f2dc04ae81ec50f0b8ea40f","619531dcf66c91622fa1b861","6195999b93c099a67b34744f","1213.1000000238419","","d","true","[[263,597],[571,426],[504,80],[154,37],[5,357]]","true","5","main_T2_Trial","d","img/Fire_Up_Target.gif","[""img/Fire_Down_Distractor.gif"",""img/Fire_Down_Distractor.gif"",""img/Fire_Down_Distractor.gif"",""img/Fire_Down_Distractor.gif"",""img/Fire_Down_Distractor.gif"",""img/Fire_Down_Distractor.gif"",""img/Fire_Down_Distractor.gif"",""img/Fire_Down_Distractor.gif"",""img/Fire_Down_Distractor.gif"",""img/Fire_Down_Distractor.gif"",""img/Fire_Down_Distractor.gif"",""img/Fire_Down_Distractor.gif""]","5","targetUp_distractorsDown"
"","","","","","html-keyboard-response","208","845450","0.0-14.0-0.0-0.97","5f2dc04ae81ec50f0b8ea40f","619531dcf66c91622fa1b861","6195999b93c099a67b34744f","null","","null","","","","","main_T1_ITI","","","","",""
"","","","","","visual-search-circle","209","848727","0.0-14.0-0.0-1.97","5f2dc04ae81ec50f0b8ea40f","619531dcf66c91622fa1b861","6195999b93c099a67b34744f","2266.5","","d","true","[[30,431],[234,592],[488,533],[599,298],[485,64],[231,7],[29,171]]","true","7","main_T2_Trial","d","img/Fire_Up_Target.gif","[""img/Fire_Down_Distractor.gif"",""img/Fire_Down_Distractor.gif"",""img/Fire_Down_Distractor.gif"",""img/Fire_Down_Distractor.gif"",""img/Fire_Down_Distractor.gif"",""img/Fire_Down_Distractor.gif"",""img/Fire_Down_Distractor.gif"",""img/Fire_Down_Distractor.gif"",""img/Fire_Down_Distractor.gif"",""img/Fire_Down_Distractor.gif"",""img/Fire_Down_Distractor.gif"",""img/Fire_Down_Distractor.gif""]","7","targetUp_distractorsDown"
"","","","","","html-keyboard-response","210","848730","0.0-14.0-0.0-0.98","5f2dc04ae81ec50f0b8ea40f","619531dcf66c91622fa1b861","6195999b93c099a67b34744f","null","","null","","","","","main_T1_ITI","","","","",""
"","","","","","visual-search-circle","211","851183","0.0-14.0-0.0-1.98","5f2dc04ae81ec50f0b8ea40f","619531dcf66c91622fa1b861","6195999b93c099a67b34744f","1445.3000000715256","","s","true","[[132,51],[51,467],[467,548],[548,132]]","false","4","main_T2_Trial","s","img/Fire_Down_Target.gif","[""img/Fire_Up_Distractor.gif"",""img/Fire_Up_Distractor.gif"",""img/Fire_Up_Distractor.gif"",""img/Fire_Up_Distractor.gif"",""img/Fire_Up_Distractor.gif"",""img/Fire_Up_Distractor.gif"",""img/Fire_Up_Distractor.gif"",""img/Fire_Up_Distractor.gif"",""img/Fire_Up_Distractor.gif"",""img/Fire_Up_Distractor.gif"",""img/Fire_Up_Distractor.gif"",""img/Fire_Up_Distractor.gif""]","4","targetDown_distractorsUp"
"","","","","","html-keyboard-response","212","852630","0.0-14.0-0.0-0.99","5f2dc04ae81ec50f0b8ea40f","619531dcf66c91622fa1b861","6195999b93c099a67b34744f","1445.3999999761581","Wow! You've completed 100 out of 160 trials! </p> <p>  </p><p> Take a quick break, then press any key when you're ready to continue."," ","","","","","main_T1_ITI","","","","",""
"","","","","","visual-search-circle","213","854900","0.0-14.0-0.0-1.99","5f2dc04ae81ec50f0b8ea40f","619531dcf66c91622fa1b861","6195999b93c099a67b34744f","1262.7999999523163","","d","true","[[548,467],[467,51],[51,132],[132,548]]","true","4","main_T2_Trial","d","img/Fire_Down_Target.gif","[""img/Fire_Up_Distractor.gif"",""img/Fire_Up_Distractor.gif"",""img/Fire_Up_Distractor.gif"",""img/Fire_Up_Distractor.gif"",""img/Fire_Up_Distractor.gif"",""img/Fire_Up_Distractor.gif"",""img/Fire_Up_Distractor.gif"",""img/Fire_Up_Distractor.gif"",""img/Fire_Up_Distractor.gif"",""img/Fire_Up_Distractor.gif"",""img/Fire_Up_Distractor.gif"",""img/Fire_Up_Distractor.gif""]","4","targetDown_distractorsUp"
"","","","","","html-keyboard-response","214","854907","0.0-14.0-0.0-0.100","5f2dc04ae81ec50f0b8ea40f","619531dcf66c91622fa1b861","6195999b93c099a67b34744f","null","","null","","","","","main_T1_ITI","","","","",""
"","","","","","visual-search-circle","215","857589","0.0-14.0-0.0-1.100","5f2dc04ae81ec50f0b8ea40f","619531dcf66c91622fa1b861","6195999b93c099a67b34744f","1675.8000000715256","","s","true","[[581,402],[402,18],[18,197],[197,581]]","false","4","main_T2_Trial","s","img/Fire_Down_Target.gif","[""img/Fire_Up_Distractor.gif"",""img/Fire_Up_Distractor.gif"",""img/Fire_Up_Distractor.gif"",""img/Fire_Up_Distractor.gif"",""img/Fire_Up_Distractor.gif"",""img/Fire_Up_Distractor.gif"",""img/Fire_Up_Distractor.gif"",""img/Fire_Up_Distractor.gif"",""img/Fire_Up_Distractor.gif"",""img/Fire_Up_Distractor.gif"",""img/Fire_Up_Distractor.gif"",""img/Fire_Up_Distractor.gif""]","4","targetDown_distractorsUp"
"","","","","","html-keyboard-response","216","857591","0.0-14.0-0.0-0.101","5f2dc04ae81ec50f0b8ea40f","619531dcf66c91622fa1b861","6195999b93c099a67b34744f","null","","null","","","","","main_T1_ITI","","","","",""
