"success","timeout","failed_images","failed_audio","failed_video","trial_type","trial_index","time_elapsed","internal_node_id","subject_id","study_id","session_id","rt","stimulus","response","correct","locations","target_present","set_size","task","correct_response","target","foilCM","setSizeCM","searchCondition"
"true","false","[]","[]","[]","preload","0","221191","0.0-0.0","5f2f31201649be31653dabc5","619531dcf66c91622fa1b861","61959691a36b74f687baa825","","","","","","","","","","","","",""
"true","","","","","fullscreen","1","232932","0.0-1.0","5f2f31201649be31653dabc5","619531dcf66c91622fa1b861","61959691a36b74f687baa825","","","","","","","","","","","","",""
"","","","","","html-keyboard-response","2","244269","0.0-2.0","5f2f31201649be31653dabc5","619531dcf66c91622fa1b861","61959691a36b74f687baa825","11336.800000000745","What a beautiful Wednesday to do some awesome science! </p> <p>  </p><p> </p>
    By completing this survey or questionnaire, you are consenting to be in this research study. </p>
    Your participation is voluntary and you can stop at any time.
    <p> [Press any key to continue.] </p>
    
    ","enter","","","","","","","","","",""
"","","","","","video-keyboard-response","3","292617","0.0-3.0","5f2f31201649be31653dabc5","619531dcf66c91622fa1b861","61959691a36b74f687baa825","48343.699999999255","[""video/TaskInstructions.mp4""]","d","","","","","","","","","",""
"","","","","","html-keyboard-response","4","300229","0.0-4.0","5f2f31201649be31653dabc5","619531dcf66c91622fa1b861","61959691a36b74f687baa825","7611.300000000745","
    <p>First, we're going to do a few practice trials to make sure you understand the task. You will recieve feedback on each trial. </p>
    <p>[Press any key to begin the familiarization phase.]</p>
    ","enter","","","","","","","","","",""
"","","","","","visual-search-circle","5","314694","0.0-5.0-0.0","5f2f31201649be31653dabc5","619531dcf66c91622fa1b861","61959691a36b74f687baa825","13393.5","","d","true","[[440,564],[564,159],[159,35],[35,440]]","true","4","training","d","","","",""
"","","","","","html-keyboard-response","6","318517","0.0-6.0","5f2f31201649be31653dabc5","619531dcf66c91622fa1b861","61959691a36b74f687baa825","3823"," <div style='float: center; '><img src='img/feedbackRight.png'></img> </div> ","enter","","","","","","","","","",""
"","","","","","visual-search-circle","7","321053","0.0-7.0-0.0","5f2f31201649be31653dabc5","619531dcf66c91622fa1b861","61959691a36b74f687baa825","1524.199999999255","","s","true","[[600,300],[300,0],[0,299],[299,600]]","false","4","training","s","","","",""
"","","","","","html-keyboard-response","8","322510","0.0-8.0","5f2f31201649be31653dabc5","619531dcf66c91622fa1b861","61959691a36b74f687baa825","1455.800000000745"," <div style='float: center; '><img src='img/feedbackRight.png'></img> </div> ","s","","","","","","","","","",""
"","","","","","visual-search-circle","9","327581","0.0-9.0-0.0","5f2f31201649be31653dabc5","619531dcf66c91622fa1b861","61959691a36b74f687baa825","4060.699999999255","","s","true","[[454,557],[599,294],[445,37],[145,42],[0,305],[154,562]]","false","6","training","s","","","",""
"","","","","","html-keyboard-response","10","328453","0.0-10.0","5f2f31201649be31653dabc5","619531dcf66c91622fa1b861","61959691a36b74f687baa825","871"," <div style='float: center; '><img src='img/feedbackRight.png'></img> </div> ","s","","","","","","","","","",""
"","","","","","visual-search-circle","11","332605","0.0-11.0-0.0","5f2f31201649be31653dabc5","619531dcf66c91622fa1b861","61959691a36b74f687baa825","3127.60000000149","","d","true","[[598,268],[488,66],[268,1],[66,111],[1,331],[111,533],[331,598],[533,488]]","true","8","training","d","","","",""
"","","","","","html-keyboard-response","12","333270","0.0-12.0","5f2f31201649be31653dabc5","619531dcf66c91622fa1b861","61959691a36b74f687baa825","663.6999999992549"," <div style='float: center; '><img src='img/feedbackRight.png'></img> </div> ","d","","","","","","","","","",""
"","","","","","video-keyboard-response","13","339943","0.0-13.0","5f2f31201649be31653dabc5","619531dcf66c91622fa1b861","61959691a36b74f687baa825","6670","[""video/endTraining.mp4""]","d","","","","","","","","","",""
"","","","","","html-keyboard-response","14","339946","0.0-14.0-0.0-0.0","5f2f31201649be31653dabc5","619531dcf66c91622fa1b861","61959691a36b74f687baa825","null","","null","","","","","main_T1_ITI","","","","",""
"","","","","","visual-search-circle","15","343517","0.0-14.0-0.0-1.0","5f2f31201649be31653dabc5","619531dcf66c91622fa1b861","61959691a36b74f687baa825","2564.199999999255","","s","true","[[463,551],[598,329],[508,84],[261,2],[43,144],[18,403],[205,584]]","false","7","main_T2_Trial","s","img/Fire_Up_Target.gif","[""img/Fire_Down_Distractor.gif"",""img/Fire_Down_Distractor.gif"",""img/Fire_Down_Distractor.gif"",""img/Fire_Down_Distractor.gif"",""img/Fire_Down_Distractor.gif"",""img/Fire_Down_Distractor.gif"",""img/Fire_Down_Distractor.gif"",""img/Fire_Down_Distractor.gif"",""img/Fire_Down_Distractor.gif"",""img/Fire_Down_Distractor.gif"",""img/Fire_Down_Distractor.gif"",""img/Fire_Down_Distractor.gif""]","7","targetUp_distractorsDown"
"","","","","","html-keyboard-response","16","343527","0.0-14.0-0.0-0.1","5f2f31201649be31653dabc5","619531dcf66c91622fa1b861","61959691a36b74f687baa825","null","","null","","","","","main_T1_ITI","","","","",""
"","","","","","visual-search-circle","17","347645","0.0-14.0-0.0-1.1","5f2f31201649be31653dabc5","619531dcf66c91622fa1b861","61959691a36b74f687baa825","3101.89999999851","","s","true","[[63,115],[115,536],[536,484],[484,63]]","false","4","main_T2_Trial","s","img/Fire_Down_Target.gif","[""img/Fire_Up_Distractor.gif"",""img/Fire_Up_Distractor.gif"",""img/Fire_Up_Distractor.gif"",""img/Fire_Up_Distractor.gif"",""img/Fire_Up_Distractor.gif"",""img/Fire_Up_Distractor.gif"",""img/Fire_Up_Distractor.gif"",""img/Fire_Up_Distractor.gif"",""img/Fire_Up_Distractor.gif"",""img/Fire_Up_Distractor.gif"",""img/Fire_Up_Distractor.gif"",""img/Fire_Up_Distractor.gif""]","4","targetDown_distractorsUp"
"","","","","","html-keyboard-response","18","347650","0.0-14.0-0.0-0.2","5f2f31201649be31653dabc5","619531dcf66c91622fa1b861","61959691a36b74f687baa825","null","","null","","","","","main_T1_ITI","","","","",""
"","","","","","visual-search-circle","19","349885","0.0-14.0-0.0-1.2","5f2f31201649be31653dabc5","619531dcf66c91622fa1b861","61959691a36b74f687baa825","1219.1000000014901","","d","true","[[289,0],[35,159],[45,458],[310,599],[564,440],[554,141]]","true","6","main_T2_Trial","d","img/Fire_Up_Target.gif","[""img/Fire_Down_Distractor.gif"",""img/Fire_Down_Distractor.gif"",""img/Fire_Down_Distractor.gif"",""img/Fire_Down_Distractor.gif"",""img/Fire_Down_Distractor.gif"",""img/Fire_Down_Distractor.gif"",""img/Fire_Down_Distractor.gif"",""img/Fire_Down_Distractor.gif"",""img/Fire_Down_Distractor.gif"",""img/Fire_Down_Distractor.gif"",""img/Fire_Down_Distractor.gif"",""img/Fire_Down_Distractor.gif""]","6","targetUp_distractorsDown"
"","","","","","html-keyboard-response","20","349887","0.0-14.0-0.0-0.3","5f2f31201649be31653dabc5","619531dcf66c91622fa1b861","61959691a36b74f687baa825","null","","null","","","","","main_T1_ITI","","","","",""
"","","","","","visual-search-circle","21","352941","0.0-14.0-0.0-1.3","5f2f31201649be31653dabc5","619531dcf66c91622fa1b861","61959691a36b74f687baa825","2046.800000000745","","s","true","[[500,522],[593,237],[392,14],[99,77],[6,362],[207,585]]","false","6","main_T2_Trial","s","img/Fire_Up_Target.gif","[""img/Fire_Down_Distractor.gif"",""img/Fire_Down_Distractor.gif"",""img/Fire_Down_Distractor.gif"",""img/Fire_Down_Distractor.gif"",""img/Fire_Down_Distractor.gif"",""img/Fire_Down_Distractor.gif"",""img/Fire_Down_Distractor.gif"",""img/Fire_Down_Distractor.gif"",""img/Fire_Down_Distractor.gif"",""img/Fire_Down_Distractor.gif"",""img/Fire_Down_Distractor.gif"",""img/Fire_Down_Distractor.gif""]","6","targetUp_distractorsDown"
"","","","","","html-keyboard-response","22","352944","0.0-14.0-0.0-0.4","5f2f31201649be31653dabc5","619531dcf66c91622fa1b861","61959691a36b74f687baa825","null","","null","","","","","main_T1_ITI","","","","",""
"","","","","","visual-search-circle","23","356029","0.0-14.0-0.0-1.4","5f2f31201649be31653dabc5","619531dcf66c91622fa1b861","61959691a36b74f687baa825","2079.5","","s","true","[[567,436],[436,32],[32,163],[163,567]]","false","4","main_T2_Trial","s","img/Fire_Down_Target.gif","[""img/Fire_Up_Distractor.gif"",""img/Fire_Up_Distractor.gif"",""img/Fire_Up_Distractor.gif"",""img/Fire_Up_Distractor.gif"",""img/Fire_Up_Distractor.gif"",""img/Fire_Up_Distractor.gif"",""img/Fire_Up_Distractor.gif"",""img/Fire_Up_Distractor.gif"",""img/Fire_Up_Distractor.gif"",""img/Fire_Up_Distractor.gif"",""img/Fire_Up_Distractor.gif"",""img/Fire_Up_Distractor.gif""]","4","targetDown_distractorsUp"
"","","","","","html-keyboard-response","24","356040","0.0-14.0-0.0-0.5","5f2f31201649be31653dabc5","619531dcf66c91622fa1b861","61959691a36b74f687baa825","null","","null","","","","","main_T1_ITI","","","","",""
"","","","","","visual-search-circle","25","358333","0.0-14.0-0.0-1.5","5f2f31201649be31653dabc5","619531dcf66c91622fa1b861","61959691a36b74f687baa825","1279","","d","true","[[578,187],[341,2],[63,115],[21,412],[258,597],[536,484]]","true","6","main_T2_Trial","d","img/Fire_Up_Target.gif","[""img/Fire_Down_Distractor.gif"",""img/Fire_Down_Distractor.gif"",""img/Fire_Down_Distractor.gif"",""img/Fire_Down_Distractor.gif"",""img/Fire_Down_Distractor.gif"",""img/Fire_Down_Distractor.gif"",""img/Fire_Down_Distractor.gif"",""img/Fire_Down_Distractor.gif"",""img/Fire_Down_Distractor.gif"",""img/Fire_Down_Distractor.gif"",""img/Fire_Down_Distractor.gif"",""img/Fire_Down_Distractor.gif""]","6","targetUp_distractorsDown"
"","","","","","html-keyboard-response","26","358335","0.0-14.0-0.0-0.6","5f2f31201649be31653dabc5","619531dcf66c91622fa1b861","61959691a36b74f687baa825","null","","null","","","","","main_T1_ITI","","","","",""
"","","","","","visual-search-circle","27","361237","0.0-14.0-0.0-1.6","5f2f31201649be31653dabc5","619531dcf66c91622fa1b861","61959691a36b74f687baa825","1894.6000000014901","","d","true","[[70,492],[412,578],[599,279],[372,8],[45,141]]","true","5","main_T2_Trial","d","img/Fire_Down_Target.gif","[""img/Fire_Up_Distractor.gif"",""img/Fire_Up_Distractor.gif"",""img/Fire_Up_Distractor.gif"",""img/Fire_Up_Distractor.gif"",""img/Fire_Up_Distractor.gif"",""img/Fire_Up_Distractor.gif"",""img/Fire_Up_Distractor.gif"",""img/Fire_Up_Distractor.gif"",""img/Fire_Up_Distractor.gif"",""img/Fire_Up_Distractor.gif"",""img/Fire_Up_Distractor.gif"",""img/Fire_Up_Distractor.gif""]","5","targetDown_distractorsUp"
"","","","","","html-keyboard-response","28","361242","0.0-14.0-0.0-0.7","5f2f31201649be31653dabc5","619531dcf66c91622fa1b861","61959691a36b74f687baa825","null","","null","","","","","main_T1_ITI","","","","",""
"","","","","","visual-search-circle","29","363517","0.0-14.0-0.0-1.7","5f2f31201649be31653dabc5","619531dcf66c91622fa1b861","61959691a36b74f687baa825","1264.300000000745","","s","true","[[207,585],[465,550],[598,326],[507,83],[259,2],[42,146],[19,405]]","false","7","main_T2_Trial","s","img/Fire_Up_Target.gif","[""img/Fire_Down_Distractor.gif"",""img/Fire_Down_Distractor.gif"",""img/Fire_Down_Distractor.gif"",""img/Fire_Down_Distractor.gif"",""img/Fire_Down_Distractor.gif"",""img/Fire_Down_Distractor.gif"",""img/Fire_Down_Distractor.gif"",""img/Fire_Down_Distractor.gif"",""img/Fire_Down_Distractor.gif"",""img/Fire_Down_Distractor.gif"",""img/Fire_Down_Distractor.gif"",""img/Fire_Down_Distractor.gif""]","7","targetUp_distractorsDown"
"","","","","","html-keyboard-response","30","363519","0.0-14.0-0.0-0.8","5f2f31201649be31653dabc5","619531dcf66c91622fa1b861","61959691a36b74f687baa825","null","","null","","","","","main_T1_ITI","","","","",""
"","","","","","visual-search-circle","31","365525","0.0-14.0-0.0-1.8","5f2f31201649be31653dabc5","619531dcf66c91622fa1b861","61959691a36b74f687baa825","997.6999999992549","","d","true","[[173,28],[2,336],[242,594],[562,445],[519,95]]","true","5","main_T2_Trial","d","img/Fire_Down_Target.gif","[""img/Fire_Up_Distractor.gif"",""img/Fire_Up_Distractor.gif"",""img/Fire_Up_Distractor.gif"",""img/Fire_Up_Distractor.gif"",""img/Fire_Up_Distractor.gif"",""img/Fire_Up_Distractor.gif"",""img/Fire_Up_Distractor.gif"",""img/Fire_Up_Distractor.gif"",""img/Fire_Up_Distractor.gif"",""img/Fire_Up_Distractor.gif"",""img/Fire_Up_Distractor.gif"",""img/Fire_Up_Distractor.gif""]","5","targetDown_distractorsUp"
"","","","","","html-keyboard-response","32","365527","0.0-14.0-0.0-0.9","5f2f31201649be31653dabc5","619531dcf66c91622fa1b861","61959691a36b74f687baa825","null","","null","","","","","main_T1_ITI","","","","",""
"","","","","","visual-search-circle","33","367885","0.0-14.0-0.0-1.9","5f2f31201649be31653dabc5","619531dcf66c91622fa1b861","61959691a36b74f687baa825","1347.5","","s","false","[[431,569],[583,397],[569,168],[397,16],[168,30],[16,202],[30,431],[202,583]]","true","8","main_T2_Trial","d","img/Fire_Up_Target.gif","[""img/Fire_Down_Distractor.gif"",""img/Fire_Down_Distractor.gif"",""img/Fire_Down_Distractor.gif"",""img/Fire_Down_Distractor.gif"",""img/Fire_Down_Distractor.gif"",""img/Fire_Down_Distractor.gif"",""img/Fire_Down_Distractor.gif"",""img/Fire_Down_Distractor.gif"",""img/Fire_Down_Distractor.gif"",""img/Fire_Down_Distractor.gif"",""img/Fire_Down_Distractor.gif"",""img/Fire_Down_Distractor.gif""]","8","targetUp_distractorsDown"
"","","","","","html-keyboard-response","34","367887","0.0-14.0-0.0-0.10","5f2f31201649be31653dabc5","619531dcf66c91622fa1b861","61959691a36b74f687baa825","null","","null","","","","","main_T1_ITI","","","","",""
"","","","","","visual-search-circle","35","370133","0.0-14.0-0.0-1.10","5f2f31201649be31653dabc5","619531dcf66c91622fa1b861","61959691a36b74f687baa825","1231.3999999985099","","d","true","[[294,599],[557,454],[562,154],[305,0],[42,145],[37,445]]","true","6","main_T2_Trial","d","img/Fire_Down_Target.gif","[""img/Fire_Up_Distractor.gif"",""img/Fire_Up_Distractor.gif"",""img/Fire_Up_Distractor.gif"",""img/Fire_Up_Distractor.gif"",""img/Fire_Up_Distractor.gif"",""img/Fire_Up_Distractor.gif"",""img/Fire_Up_Distractor.gif"",""img/Fire_Up_Distractor.gif"",""img/Fire_Up_Distractor.gif"",""img/Fire_Up_Distractor.gif"",""img/Fire_Up_Distractor.gif"",""img/Fire_Up_Distractor.gif""]","6","targetDown_distractorsUp"
"","","","","","html-keyboard-response","36","370135","0.0-14.0-0.0-0.11","5f2f31201649be31653dabc5","619531dcf66c91622fa1b861","61959691a36b74f687baa825","null","","null","","","","","main_T1_ITI","","","","",""
"","","","","","visual-search-circle","37","372909","0.0-14.0-0.0-1.11","5f2f31201649be31653dabc5","619531dcf66c91622fa1b861","61959691a36b74f687baa825","1757.2000000029802","","d","true","[[578,412],[536,115],[258,2],[21,187],[63,484],[341,597]]","true","6","main_T2_Trial","d","img/Fire_Up_Target.gif","[""img/Fire_Down_Distractor.gif"",""img/Fire_Down_Distractor.gif"",""img/Fire_Down_Distractor.gif"",""img/Fire_Down_Distractor.gif"",""img/Fire_Down_Distractor.gif"",""img/Fire_Down_Distractor.gif"",""img/Fire_Down_Distractor.gif"",""img/Fire_Down_Distractor.gif"",""img/Fire_Down_Distractor.gif"",""img/Fire_Down_Distractor.gif"",""img/Fire_Down_Distractor.gif"",""img/Fire_Down_Distractor.gif""]","6","targetUp_distractorsDown"
"","","","","","html-keyboard-response","38","372911","0.0-14.0-0.0-0.12","5f2f31201649be31653dabc5","619531dcf66c91622fa1b861","61959691a36b74f687baa825","null","","null","","","","","main_T1_ITI","","","","",""
"","","","","","visual-search-circle","39","375070","0.0-14.0-0.0-1.12","5f2f31201649be31653dabc5","619531dcf66c91622fa1b861","61959691a36b74f687baa825","1153.699999999255","","s","true","[[30,168],[168,569],[569,431],[431,30]]","false","4","main_T2_Trial","s","img/Fire_Up_Target.gif","[""img/Fire_Down_Distractor.gif"",""img/Fire_Down_Distractor.gif"",""img/Fire_Down_Distractor.gif"",""img/Fire_Down_Distractor.gif"",""img/Fire_Down_Distractor.gif"",""img/Fire_Down_Distractor.gif"",""img/Fire_Down_Distractor.gif"",""img/Fire_Down_Distractor.gif"",""img/Fire_Down_Distractor.gif"",""img/Fire_Down_Distractor.gif"",""img/Fire_Down_Distractor.gif"",""img/Fire_Down_Distractor.gif""]","4","targetUp_distractorsDown"
"","","","","","html-keyboard-response","40","375073","0.0-14.0-0.0-0.13","5f2f31201649be31653dabc5","619531dcf66c91622fa1b861","61959691a36b74f687baa825","null","","null","","","","","main_T1_ITI","","","","",""
"","","","","","visual-search-circle","41","377213","0.0-14.0-0.0-1.13","5f2f31201649be31653dabc5","619531dcf66c91622fa1b861","61959691a36b74f687baa825","1122.0999999977648","","s","true","[[597,263],[357,5],[37,154],[80,504],[426,571]]","false","5","main_T2_Trial","s","img/Fire_Down_Target.gif","[""img/Fire_Up_Distractor.gif"",""img/Fire_Up_Distractor.gif"",""img/Fire_Up_Distractor.gif"",""img/Fire_Up_Distractor.gif"",""img/Fire_Up_Distractor.gif"",""img/Fire_Up_Distractor.gif"",""img/Fire_Up_Distractor.gif"",""img/Fire_Up_Distractor.gif"",""img/Fire_Up_Distractor.gif"",""img/Fire_Up_Distractor.gif"",""img/Fire_Up_Distractor.gif"",""img/Fire_Up_Distractor.gif""]","5","targetDown_distractorsUp"
"","","","","","html-keyboard-response","42","377215","0.0-14.0-0.0-0.14","5f2f31201649be31653dabc5","619531dcf66c91622fa1b861","61959691a36b74f687baa825","null","","null","","","","","main_T1_ITI","","","","",""
"","","","","","visual-search-circle","43","380765","0.0-14.0-0.0-1.14","5f2f31201649be31653dabc5","619531dcf66c91622fa1b861","61959691a36b74f687baa825","2541.300000000745","","d","false","[[352,595],[581,402],[529,107],[247,4],[18,197],[70,492]]","false","6","main_T2_Trial","s","img/Fire_Down_Target.gif","[""img/Fire_Up_Distractor.gif"",""img/Fire_Up_Distractor.gif"",""img/Fire_Up_Distractor.gif"",""img/Fire_Up_Distractor.gif"",""img/Fire_Up_Distractor.gif"",""img/Fire_Up_Distractor.gif"",""img/Fire_Up_Distractor.gif"",""img/Fire_Up_Distractor.gif"",""img/Fire_Up_Distractor.gif"",""img/Fire_Up_Distractor.gif"",""img/Fire_Up_Distractor.gif"",""img/Fire_Up_Distractor.gif""]","6","targetDown_distractorsUp"
"","","","","","html-keyboard-response","44","380767","0.0-14.0-0.0-0.15","5f2f31201649be31653dabc5","619531dcf66c91622fa1b861","61959691a36b74f687baa825","null","","null","","","","","main_T1_ITI","","","","",""
"","","","","","visual-search-circle","45","382925","0.0-14.0-0.0-1.15","5f2f31201649be31653dabc5","619531dcf66c91622fa1b861","61959691a36b74f687baa825","1147.2999999970198","","s","true","[[294,599],[508,515],[599,305],[515,91],[305,0],[91,84],[0,294],[84,508]]","false","8","main_T2_Trial","s","img/Fire_Up_Target.gif","[""img/Fire_Down_Distractor.gif"",""img/Fire_Down_Distractor.gif"",""img/Fire_Down_Distractor.gif"",""img/Fire_Down_Distractor.gif"",""img/Fire_Down_Distractor.gif"",""img/Fire_Down_Distractor.gif"",""img/Fire_Down_Distractor.gif"",""img/Fire_Down_Distractor.gif"",""img/Fire_Down_Distractor.gif"",""img/Fire_Down_Distractor.gif"",""img/Fire_Down_Distractor.gif"",""img/Fire_Down_Distractor.gif""]","8","targetUp_distractorsDown"
"","","","","","html-keyboard-response","46","382933","0.0-14.0-0.0-0.16","5f2f31201649be31653dabc5","619531dcf66c91622fa1b861","61959691a36b74f687baa825","null","","null","","","","","main_T1_ITI","","","","",""
"","","","","","visual-search-circle","47","384877","0.0-14.0-0.0-1.16","5f2f31201649be31653dabc5","619531dcf66c91622fa1b861","61959691a36b74f687baa825","931.6000000014901","","d","true","[[548,467],[467,51],[51,132],[132,548]]","true","4","main_T2_Trial","d","img/Fire_Up_Target.gif","[""img/Fire_Down_Distractor.gif"",""img/Fire_Down_Distractor.gif"",""img/Fire_Down_Distractor.gif"",""img/Fire_Down_Distractor.gif"",""img/Fire_Down_Distractor.gif"",""img/Fire_Down_Distractor.gif"",""img/Fire_Down_Distractor.gif"",""img/Fire_Down_Distractor.gif"",""img/Fire_Down_Distractor.gif"",""img/Fire_Down_Distractor.gif"",""img/Fire_Down_Distractor.gif"",""img/Fire_Down_Distractor.gif""]","4","targetUp_distractorsDown"
"","","","","","html-keyboard-response","48","384879","0.0-14.0-0.0-0.17","5f2f31201649be31653dabc5","619531dcf66c91622fa1b861","61959691a36b74f687baa825","null","","null","","","","","main_T1_ITI","","","","",""
"","","","","","visual-search-circle","49","387069","0.0-14.0-0.0-1.17","5f2f31201649be31653dabc5","619531dcf66c91622fa1b861","61959691a36b74f687baa825","1167.1000000014901","","s","false","[[387,586],[564,440],[586,212],[440,35],[212,13],[35,159],[13,387],[159,564]]","true","8","main_T2_Trial","d","img/Fire_Up_Target.gif","[""img/Fire_Down_Distractor.gif"",""img/Fire_Down_Distractor.gif"",""img/Fire_Down_Distractor.gif"",""img/Fire_Down_Distractor.gif"",""img/Fire_Down_Distractor.gif"",""img/Fire_Down_Distractor.gif"",""img/Fire_Down_Distractor.gif"",""img/Fire_Down_Distractor.gif"",""img/Fire_Down_Distractor.gif"",""img/Fire_Down_Distractor.gif"",""img/Fire_Down_Distractor.gif"",""img/Fire_Down_Distractor.gif""]","8","targetUp_distractorsDown"
"","","","","","html-keyboard-response","50","387071","0.0-14.0-0.0-0.18","5f2f31201649be31653dabc5","619531dcf66c91622fa1b861","61959691a36b74f687baa825","null","","null","","","","","main_T1_ITI","","","","",""
"","","","","","visual-search-circle","51","389342","0.0-14.0-0.0-1.18","5f2f31201649be31653dabc5","619531dcf66c91622fa1b861","61959691a36b74f687baa825","1254.9000000022352","","s","true","[[598,326],[529,107],[326,1],[107,70],[1,273],[70,492],[273,598],[492,529]]","false","8","main_T2_Trial","s","img/Fire_Up_Target.gif","[""img/Fire_Down_Distractor.gif"",""img/Fire_Down_Distractor.gif"",""img/Fire_Down_Distractor.gif"",""img/Fire_Down_Distractor.gif"",""img/Fire_Down_Distractor.gif"",""img/Fire_Down_Distractor.gif"",""img/Fire_Down_Distractor.gif"",""img/Fire_Down_Distractor.gif"",""img/Fire_Down_Distractor.gif"",""img/Fire_Down_Distractor.gif"",""img/Fire_Down_Distractor.gif"",""img/Fire_Down_Distractor.gif""]","8","targetUp_distractorsDown"
"","","","","","html-keyboard-response","52","436637","0.0-14.0-0.0-0.19","5f2f31201649be31653dabc5","619531dcf66c91622fa1b861","61959691a36b74f687baa825","47296.800000000745","Wow! You've completed 20 out of 160 trials! </p> <p>  </p><p> Take a quick break, then press any key when you're ready to continue.","d","","","","","main_T1_ITI","","","","",""
"","","","","","visual-search-circle","53","439572","0.0-14.0-0.0-1.19","5f2f31201649be31653dabc5","619531dcf66c91622fa1b861","61959691a36b74f687baa825","1927.300000000745","","s","true","[[0,320],[103,526],[320,599],[526,496],[599,279],[496,73],[279,0],[73,103]]","false","8","main_T2_Trial","s","img/Fire_Up_Target.gif","[""img/Fire_Down_Distractor.gif"",""img/Fire_Down_Distractor.gif"",""img/Fire_Down_Distractor.gif"",""img/Fire_Down_Distractor.gif"",""img/Fire_Down_Distractor.gif"",""img/Fire_Down_Distractor.gif"",""img/Fire_Down_Distractor.gif"",""img/Fire_Down_Distractor.gif"",""img/Fire_Down_Distractor.gif"",""img/Fire_Down_Distractor.gif"",""img/Fire_Down_Distractor.gif"",""img/Fire_Down_Distractor.gif""]","8","targetUp_distractorsDown"
"","","","","","html-keyboard-response","54","439574","0.0-14.0-0.0-0.20","5f2f31201649be31653dabc5","619531dcf66c91622fa1b861","61959691a36b74f687baa825","null","","null","","","","","main_T1_ITI","","","","",""
"","","","","","visual-search-circle","55","442620","0.0-14.0-0.0-1.20","5f2f31201649be31653dabc5","619531dcf66c91622fa1b861","61959691a36b74f687baa825","2037","","d","true","[[585,207],[300,0],[14,207],[123,542],[476,542]]","true","5","main_T2_Trial","d","img/Fire_Up_Target.gif","[""img/Fire_Down_Distractor.gif"",""img/Fire_Down_Distractor.gif"",""img/Fire_Down_Distractor.gif"",""img/Fire_Down_Distractor.gif"",""img/Fire_Down_Distractor.gif"",""img/Fire_Down_Distractor.gif"",""img/Fire_Down_Distractor.gif"",""img/Fire_Down_Distractor.gif"",""img/Fire_Down_Distractor.gif"",""img/Fire_Down_Distractor.gif"",""img/Fire_Down_Distractor.gif"",""img/Fire_Down_Distractor.gif""]","5","targetUp_distractorsDown"
"","","","","","html-keyboard-response","56","442622","0.0-14.0-0.0-0.21","5f2f31201649be31653dabc5","619531dcf66c91622fa1b861","61959691a36b74f687baa825","null","","null","","","","","main_T1_ITI","","","","",""
"","","","","","visual-search-circle","57","444995","0.0-14.0-0.0-1.21","5f2f31201649be31653dabc5","619531dcf66c91622fa1b861","61959691a36b74f687baa825","1357.1000000014901","","d","true","[[87,512],[299,600],[512,512],[600,300],[512,87],[300,0],[87,87],[0,299]]","true","8","main_T2_Trial","d","img/Fire_Down_Target.gif","[""img/Fire_Up_Distractor.gif"",""img/Fire_Up_Distractor.gif"",""img/Fire_Up_Distractor.gif"",""img/Fire_Up_Distractor.gif"",""img/Fire_Up_Distractor.gif"",""img/Fire_Up_Distractor.gif"",""img/Fire_Up_Distractor.gif"",""img/Fire_Up_Distractor.gif"",""img/Fire_Up_Distractor.gif"",""img/Fire_Up_Distractor.gif"",""img/Fire_Up_Distractor.gif"",""img/Fire_Up_Distractor.gif""]","8","targetDown_distractorsUp"
"","","","","","html-keyboard-response","58","444996","0.0-14.0-0.0-0.22","5f2f31201649be31653dabc5","619531dcf66c91622fa1b861","61959691a36b74f687baa825","null","","null","","","","","main_T1_ITI","","","","",""
"","","","","","visual-search-circle","59","447522","0.0-14.0-0.0-1.22","5f2f31201649be31653dabc5","619531dcf66c91622fa1b861","61959691a36b74f687baa825","1516.199999999255","","s","true","[[569,168],[397,16],[168,30],[16,202],[30,431],[202,583],[431,569],[583,397]]","false","8","main_T2_Trial","s","img/Fire_Up_Target.gif","[""img/Fire_Down_Distractor.gif"",""img/Fire_Down_Distractor.gif"",""img/Fire_Down_Distractor.gif"",""img/Fire_Down_Distractor.gif"",""img/Fire_Down_Distractor.gif"",""img/Fire_Down_Distractor.gif"",""img/Fire_Down_Distractor.gif"",""img/Fire_Down_Distractor.gif"",""img/Fire_Down_Distractor.gif"",""img/Fire_Down_Distractor.gif"",""img/Fire_Down_Distractor.gif"",""img/Fire_Down_Distractor.gif""]","8","targetUp_distractorsDown"
"","","","","","html-keyboard-response","60","447524","0.0-14.0-0.0-0.23","5f2f31201649be31653dabc5","619531dcf66c91622fa1b861","61959691a36b74f687baa825","null","","null","","","","","main_T1_ITI","","","","",""
"","","","","","visual-search-circle","61","450243","0.0-14.0-0.0-1.23","5f2f31201649be31653dabc5","619531dcf66c91622fa1b861","61959691a36b74f687baa825","1701.6000000014901","","s","true","[[450,40],[40,150],[149,559],[559,450]]","false","4","main_T2_Trial","s","img/Fire_Down_Target.gif","[""img/Fire_Up_Distractor.gif"",""img/Fire_Up_Distractor.gif"",""img/Fire_Up_Distractor.gif"",""img/Fire_Up_Distractor.gif"",""img/Fire_Up_Distractor.gif"",""img/Fire_Up_Distractor.gif"",""img/Fire_Up_Distractor.gif"",""img/Fire_Up_Distractor.gif"",""img/Fire_Up_Distractor.gif"",""img/Fire_Up_Distractor.gif"",""img/Fire_Up_Distractor.gif"",""img/Fire_Up_Distractor.gif""]","4","targetDown_distractorsUp"
"","","","","","html-keyboard-response","62","450244","0.0-14.0-0.0-0.24","5f2f31201649be31653dabc5","619531dcf66c91622fa1b861","61959691a36b74f687baa825","null","","null","","","","","main_T1_ITI","","","","",""
"","","","","","visual-search-circle","63","452739","0.0-14.0-0.0-1.24","5f2f31201649be31653dabc5","619531dcf66c91622fa1b861","61959691a36b74f687baa825","1478.2000000029802","","s","true","[[500,77],[150,40],[6,362],[268,598],[574,422]]","false","5","main_T2_Trial","s","img/Fire_Down_Target.gif","[""img/Fire_Up_Distractor.gif"",""img/Fire_Up_Distractor.gif"",""img/Fire_Up_Distractor.gif"",""img/Fire_Up_Distractor.gif"",""img/Fire_Up_Distractor.gif"",""img/Fire_Up_Distractor.gif"",""img/Fire_Up_Distractor.gif"",""img/Fire_Up_Distractor.gif"",""img/Fire_Up_Distractor.gif"",""img/Fire_Up_Distractor.gif"",""img/Fire_Up_Distractor.gif"",""img/Fire_Up_Distractor.gif""]","5","targetDown_distractorsUp"
"","","","","","html-keyboard-response","64","452740","0.0-14.0-0.0-0.25","5f2f31201649be31653dabc5","619531dcf66c91622fa1b861","61959691a36b74f687baa825","null","","null","","","","","main_T1_ITI","","","","",""
"","","","","","visual-search-circle","65","454915","0.0-14.0-0.0-1.25","5f2f31201649be31653dabc5","619531dcf66c91622fa1b861","61959691a36b74f687baa825","1167.3999999985099","","d","true","[[589,222],[315,0],[19,192],[111,533],[463,551]]","true","5","main_T2_Trial","d","img/Fire_Down_Target.gif","[""img/Fire_Up_Distractor.gif"",""img/Fire_Up_Distractor.gif"",""img/Fire_Up_Distractor.gif"",""img/Fire_Up_Distractor.gif"",""img/Fire_Up_Distractor.gif"",""img/Fire_Up_Distractor.gif"",""img/Fire_Up_Distractor.gif"",""img/Fire_Up_Distractor.gif"",""img/Fire_Up_Distractor.gif"",""img/Fire_Up_Distractor.gif"",""img/Fire_Up_Distractor.gif"",""img/Fire_Up_Distractor.gif""]","5","targetDown_distractorsUp"
"","","","","","html-keyboard-response","66","454916","0.0-14.0-0.0-0.26","5f2f31201649be31653dabc5","619531dcf66c91622fa1b861","61959691a36b74f687baa825","null","","null","","","","","main_T1_ITI","","","","",""
"","","","","","visual-search-circle","67","457099","0.0-14.0-0.0-1.26","5f2f31201649be31653dabc5","619531dcf66c91622fa1b861","61959691a36b74f687baa825","1164.5","","d","true","[[77,500],[317,599],[545,472],[587,215],[413,22],[153,37],[4,250]]","true","7","main_T2_Trial","d","img/Fire_Up_Target.gif","[""img/Fire_Down_Distractor.gif"",""img/Fire_Down_Distractor.gif"",""img/Fire_Down_Distractor.gif"",""img/Fire_Down_Distractor.gif"",""img/Fire_Down_Distractor.gif"",""img/Fire_Down_Distractor.gif"",""img/Fire_Down_Distractor.gif"",""img/Fire_Down_Distractor.gif"",""img/Fire_Down_Distractor.gif"",""img/Fire_Down_Distractor.gif"",""img/Fire_Down_Distractor.gif"",""img/Fire_Down_Distractor.gif""]","7","targetUp_distractorsDown"
"","","","","","html-keyboard-response","68","457101","0.0-14.0-0.0-0.27","5f2f31201649be31653dabc5","619531dcf66c91622fa1b861","61959691a36b74f687baa825","null","","null","","","","","main_T1_ITI","","","","",""
"","","","","","visual-search-circle","69","460267","0.0-14.0-0.0-1.27","5f2f31201649be31653dabc5","619531dcf66c91622fa1b861","61959691a36b74f687baa825","2149.900000002235","","s","false","[[488,533],[533,111],[111,66],[66,488]]","true","4","main_T2_Trial","d","img/Fire_Up_Target.gif","[""img/Fire_Down_Distractor.gif"",""img/Fire_Down_Distractor.gif"",""img/Fire_Down_Distractor.gif"",""img/Fire_Down_Distractor.gif"",""img/Fire_Down_Distractor.gif"",""img/Fire_Down_Distractor.gif"",""img/Fire_Down_Distractor.gif"",""img/Fire_Down_Distractor.gif"",""img/Fire_Down_Distractor.gif"",""img/Fire_Down_Distractor.gif"",""img/Fire_Down_Distractor.gif"",""img/Fire_Down_Distractor.gif""]","4","targetUp_distractorsDown"
"","","","","","html-keyboard-response","70","460268","0.0-14.0-0.0-0.28","5f2f31201649be31653dabc5","619531dcf66c91622fa1b861","61959691a36b74f687baa825","null","","null","","","","","main_T1_ITI","","","","",""
"","","","","","visual-search-circle","71","462539","0.0-14.0-0.0-1.28","5f2f31201649be31653dabc5","619531dcf66c91622fa1b861","61959691a36b74f687baa825","1252.699999999255","","s","true","[[154,562],[562,445],[445,37],[37,154]]","false","4","main_T2_Trial","s","img/Fire_Down_Target.gif","[""img/Fire_Up_Distractor.gif"",""img/Fire_Up_Distractor.gif"",""img/Fire_Up_Distractor.gif"",""img/Fire_Up_Distractor.gif"",""img/Fire_Up_Distractor.gif"",""img/Fire_Up_Distractor.gif"",""img/Fire_Up_Distractor.gif"",""img/Fire_Up_Distractor.gif"",""img/Fire_Up_Distractor.gif"",""img/Fire_Up_Distractor.gif"",""img/Fire_Up_Distractor.gif"",""img/Fire_Up_Distractor.gif""]","4","targetDown_distractorsUp"
"","","","","","html-keyboard-response","72","462541","0.0-14.0-0.0-0.29","5f2f31201649be31653dabc5","619531dcf66c91622fa1b861","61959691a36b74f687baa825","null","","null","","","","","main_T1_ITI","","","","",""
"","","","","","visual-search-circle","73","464611","0.0-14.0-0.0-1.29","5f2f31201649be31653dabc5","619531dcf66c91622fa1b861","61959691a36b74f687baa825","1053.5","","d","true","[[591,372],[458,45],[107,70],[21,412],[320,599]]","true","5","main_T2_Trial","d","img/Fire_Down_Target.gif","[""img/Fire_Up_Distractor.gif"",""img/Fire_Up_Distractor.gif"",""img/Fire_Up_Distractor.gif"",""img/Fire_Up_Distractor.gif"",""img/Fire_Up_Distractor.gif"",""img/Fire_Up_Distractor.gif"",""img/Fire_Up_Distractor.gif"",""img/Fire_Up_Distractor.gif"",""img/Fire_Up_Distractor.gif"",""img/Fire_Up_Distractor.gif"",""img/Fire_Up_Distractor.gif"",""img/Fire_Up_Distractor.gif""]","5","targetDown_distractorsUp"
"","","","","","html-keyboard-response","74","464613","0.0-14.0-0.0-0.30","5f2f31201649be31653dabc5","619531dcf66c91622fa1b861","61959691a36b74f687baa825","null","","null","","","","","main_T1_ITI","","","","",""
"","","","","","visual-search-circle","75","466891","0.0-14.0-0.0-1.30","5f2f31201649be31653dabc5","619531dcf66c91622fa1b861","61959691a36b74f687baa825","1263.5999999977648","","s","false","[[305,0],[68,108],[6,361],[165,567],[425,572],[591,371],[537,117]]","true","7","main_T2_Trial","d","img/Fire_Up_Target.gif","[""img/Fire_Down_Distractor.gif"",""img/Fire_Down_Distractor.gif"",""img/Fire_Down_Distractor.gif"",""img/Fire_Down_Distractor.gif"",""img/Fire_Down_Distractor.gif"",""img/Fire_Down_Distractor.gif"",""img/Fire_Down_Distractor.gif"",""img/Fire_Down_Distractor.gif"",""img/Fire_Down_Distractor.gif"",""img/Fire_Down_Distractor.gif"",""img/Fire_Down_Distractor.gif"",""img/Fire_Down_Distractor.gif""]","7","targetUp_distractorsDown"
"","","","","","html-keyboard-response","76","466904","0.0-14.0-0.0-0.31","5f2f31201649be31653dabc5","619531dcf66c91622fa1b861","61959691a36b74f687baa825","null","","null","","","","","main_T1_ITI","","","","",""
"","","","","","visual-search-circle","77","469211","0.0-14.0-0.0-1.31","5f2f31201649be31653dabc5","619531dcf66c91622fa1b861","61959691a36b74f687baa825","1298.1000000014901","","s","true","[[192,580],[533,488],[551,136],[222,10],[0,284]]","false","5","main_T2_Trial","s","img/Fire_Up_Target.gif","[""img/Fire_Down_Distractor.gif"",""img/Fire_Down_Distractor.gif"",""img/Fire_Down_Distractor.gif"",""img/Fire_Down_Distractor.gif"",""img/Fire_Down_Distractor.gif"",""img/Fire_Down_Distractor.gif"",""img/Fire_Down_Distractor.gif"",""img/Fire_Down_Distractor.gif"",""img/Fire_Down_Distractor.gif"",""img/Fire_Down_Distractor.gif"",""img/Fire_Down_Distractor.gif"",""img/Fire_Down_Distractor.gif""]","5","targetUp_distractorsDown"
"","","","","","html-keyboard-response","78","469213","0.0-14.0-0.0-0.32","5f2f31201649be31653dabc5","619531dcf66c91622fa1b861","61959691a36b74f687baa825","null","","null","","","","","main_T1_ITI","","","","",""
"","","","","","visual-search-circle","79","471371","0.0-14.0-0.0-1.32","5f2f31201649be31653dabc5","619531dcf66c91622fa1b861","61959691a36b74f687baa825","1144.6000000014901","","s","true","[[597,341],[539,119],[341,2],[119,60],[2,258],[60,480],[258,597],[480,539]]","false","8","main_T2_Trial","s","img/Fire_Up_Target.gif","[""img/Fire_Down_Distractor.gif"",""img/Fire_Down_Distractor.gif"",""img/Fire_Down_Distractor.gif"",""img/Fire_Down_Distractor.gif"",""img/Fire_Down_Distractor.gif"",""img/Fire_Down_Distractor.gif"",""img/Fire_Down_Distractor.gif"",""img/Fire_Down_Distractor.gif"",""img/Fire_Down_Distractor.gif"",""img/Fire_Down_Distractor.gif"",""img/Fire_Down_Distractor.gif"",""img/Fire_Down_Distractor.gif""]","8","targetUp_distractorsDown"
"","","","","","html-keyboard-response","80","471372","0.0-14.0-0.0-0.33","5f2f31201649be31653dabc5","619531dcf66c91622fa1b861","61959691a36b74f687baa825","null","","null","","","","","main_T1_ITI","","","","",""
"","","","","","visual-search-circle","81","473419","0.0-14.0-0.0-1.33","5f2f31201649be31653dabc5","619531dcf66c91622fa1b861","61959691a36b74f687baa825","1028.5","","d","true","[[107,70],[4,352],[197,581],[492,529],[595,247],[402,18]]","true","6","main_T2_Trial","d","img/Fire_Down_Target.gif","[""img/Fire_Up_Distractor.gif"",""img/Fire_Up_Distractor.gif"",""img/Fire_Up_Distractor.gif"",""img/Fire_Up_Distractor.gif"",""img/Fire_Up_Distractor.gif"",""img/Fire_Up_Distractor.gif"",""img/Fire_Up_Distractor.gif"",""img/Fire_Up_Distractor.gif"",""img/Fire_Up_Distractor.gif"",""img/Fire_Up_Distractor.gif"",""img/Fire_Up_Distractor.gif"",""img/Fire_Up_Distractor.gif""]","6","targetDown_distractorsUp"
"","","","","","html-keyboard-response","82","473420","0.0-14.0-0.0-0.34","5f2f31201649be31653dabc5","619531dcf66c91622fa1b861","61959691a36b74f687baa825","null","","null","","","","","main_T1_ITI","","","","",""
"","","","","","visual-search-circle","83","475572","0.0-14.0-0.0-1.34","5f2f31201649be31653dabc5","619531dcf66c91622fa1b861","61959691a36b74f687baa825","1138.1000000014901","","s","true","[[599,305],[305,0],[0,294],[294,599]]","false","4","main_T2_Trial","s","img/Fire_Down_Target.gif","[""img/Fire_Up_Distractor.gif"",""img/Fire_Up_Distractor.gif"",""img/Fire_Up_Distractor.gif"",""img/Fire_Up_Distractor.gif"",""img/Fire_Up_Distractor.gif"",""img/Fire_Up_Distractor.gif"",""img/Fire_Up_Distractor.gif"",""img/Fire_Up_Distractor.gif"",""img/Fire_Up_Distractor.gif"",""img/Fire_Up_Distractor.gif"",""img/Fire_Up_Distractor.gif"",""img/Fire_Up_Distractor.gif""]","4","targetDown_distractorsUp"
"","","","","","html-keyboard-response","84","475574","0.0-14.0-0.0-0.35","5f2f31201649be31653dabc5","619531dcf66c91622fa1b861","61959691a36b74f687baa825","null","","null","","","","","main_T1_ITI","","","","",""
"","","","","","visual-search-circle","85","477474","0.0-14.0-0.0-1.35","5f2f31201649be31653dabc5","619531dcf66c91622fa1b861","61959691a36b74f687baa825","887.3999999985099","","d","true","[[66,488],[346,596],[580,407],[533,111],[253,3],[19,192]]","true","6","main_T2_Trial","d","img/Fire_Up_Target.gif","[""img/Fire_Down_Distractor.gif"",""img/Fire_Down_Distractor.gif"",""img/Fire_Down_Distractor.gif"",""img/Fire_Down_Distractor.gif"",""img/Fire_Down_Distractor.gif"",""img/Fire_Down_Distractor.gif"",""img/Fire_Down_Distractor.gif"",""img/Fire_Down_Distractor.gif"",""img/Fire_Down_Distractor.gif"",""img/Fire_Down_Distractor.gif"",""img/Fire_Down_Distractor.gif"",""img/Fire_Down_Distractor.gif""]","6","targetUp_distractorsDown"
"","","","","","html-keyboard-response","86","477477","0.0-14.0-0.0-0.36","5f2f31201649be31653dabc5","619531dcf66c91622fa1b861","61959691a36b74f687baa825","null","","null","","","","","main_T1_ITI","","","","",""
"","","","","","visual-search-circle","87","480195","0.0-14.0-0.0-1.36","5f2f31201649be31653dabc5","619531dcf66c91622fa1b861","61959691a36b74f687baa825","1707","","s","true","[[377,10],[48,136],[66,488],[407,580],[599,284]]","false","5","main_T2_Trial","s","img/Fire_Down_Target.gif","[""img/Fire_Up_Distractor.gif"",""img/Fire_Up_Distractor.gif"",""img/Fire_Up_Distractor.gif"",""img/Fire_Up_Distractor.gif"",""img/Fire_Up_Distractor.gif"",""img/Fire_Up_Distractor.gif"",""img/Fire_Up_Distractor.gif"",""img/Fire_Up_Distractor.gif"",""img/Fire_Up_Distractor.gif"",""img/Fire_Up_Distractor.gif"",""img/Fire_Up_Distractor.gif"",""img/Fire_Up_Distractor.gif""]","5","targetDown_distractorsUp"
"","","","","","html-keyboard-response","88","480197","0.0-14.0-0.0-0.37","5f2f31201649be31653dabc5","619531dcf66c91622fa1b861","61959691a36b74f687baa825","null","","null","","","","","main_T1_ITI","","","","",""
"","","","","","visual-search-circle","89","482563","0.0-14.0-0.0-1.37","5f2f31201649be31653dabc5","619531dcf66c91622fa1b861","61959691a36b74f687baa825","1346.800000000745","","d","true","[[508,84],[294,0],[84,91],[0,305],[91,515],[305,599],[515,508],[599,294]]","true","8","main_T2_Trial","d","img/Fire_Up_Target.gif","[""img/Fire_Down_Distractor.gif"",""img/Fire_Down_Distractor.gif"",""img/Fire_Down_Distractor.gif"",""img/Fire_Down_Distractor.gif"",""img/Fire_Down_Distractor.gif"",""img/Fire_Down_Distractor.gif"",""img/Fire_Down_Distractor.gif"",""img/Fire_Down_Distractor.gif"",""img/Fire_Down_Distractor.gif"",""img/Fire_Down_Distractor.gif"",""img/Fire_Down_Distractor.gif"",""img/Fire_Down_Distractor.gif""]","8","targetUp_distractorsDown"
"","","","","","html-keyboard-response","90","482564","0.0-14.0-0.0-0.38","5f2f31201649be31653dabc5","619531dcf66c91622fa1b861","61959691a36b74f687baa825","null","","null","","","","","main_T1_ITI","","","","",""
"","","","","","visual-search-circle","91","484420","0.0-14.0-0.0-1.38","5f2f31201649be31653dabc5","619531dcf66c91622fa1b861","61959691a36b74f687baa825","851.5","","s","true","[[599,305],[397,16],[60,119],[54,472],[387,586]]","false","5","main_T2_Trial","s","img/Fire_Down_Target.gif","[""img/Fire_Up_Distractor.gif"",""img/Fire_Up_Distractor.gif"",""img/Fire_Up_Distractor.gif"",""img/Fire_Up_Distractor.gif"",""img/Fire_Up_Distractor.gif"",""img/Fire_Up_Distractor.gif"",""img/Fire_Up_Distractor.gif"",""img/Fire_Up_Distractor.gif"",""img/Fire_Up_Distractor.gif"",""img/Fire_Up_Distractor.gif"",""img/Fire_Up_Distractor.gif"",""img/Fire_Up_Distractor.gif""]","5","targetDown_distractorsUp"
"","","","","","html-keyboard-response","92","486163","0.0-14.0-0.0-0.39","5f2f31201649be31653dabc5","619531dcf66c91622fa1b861","61959691a36b74f687baa825","1742.3999999985099","Wow! You've completed 40 out of 160 trials! </p> <p>  </p><p> Take a quick break, then press any key when you're ready to continue.","d","","","","","main_T1_ITI","","","","",""
"","","","","","visual-search-circle","93","488307","0.0-14.0-0.0-1.39","5f2f31201649be31653dabc5","619531dcf66c91622fa1b861","61959691a36b74f687baa825","1127","","d","true","[[599,320],[467,51],[168,30],[0,279],[132,548],[431,569]]","true","6","main_T2_Trial","d","img/Fire_Down_Target.gif","[""img/Fire_Up_Distractor.gif"",""img/Fire_Up_Distractor.gif"",""img/Fire_Up_Distractor.gif"",""img/Fire_Up_Distractor.gif"",""img/Fire_Up_Distractor.gif"",""img/Fire_Up_Distractor.gif"",""img/Fire_Up_Distractor.gif"",""img/Fire_Up_Distractor.gif"",""img/Fire_Up_Distractor.gif"",""img/Fire_Up_Distractor.gif"",""img/Fire_Up_Distractor.gif"",""img/Fire_Up_Distractor.gif""]","6","targetDown_distractorsUp"
"","","","","","html-keyboard-response","94","488308","0.0-14.0-0.0-0.40","5f2f31201649be31653dabc5","619531dcf66c91622fa1b861","61959691a36b74f687baa825","null","","null","","","","","main_T1_ITI","","","","",""
"","","","","","visual-search-circle","95","490427","0.0-14.0-0.0-1.40","5f2f31201649be31653dabc5","619531dcf66c91622fa1b861","61959691a36b74f687baa825","1107.699999999255","","d","true","[[377,589],[559,450],[589,222],[449,40],[222,10],[40,150],[10,377],[150,559]]","true","8","main_T2_Trial","d","img/Fire_Down_Target.gif","[""img/Fire_Up_Distractor.gif"",""img/Fire_Up_Distractor.gif"",""img/Fire_Up_Distractor.gif"",""img/Fire_Up_Distractor.gif"",""img/Fire_Up_Distractor.gif"",""img/Fire_Up_Distractor.gif"",""img/Fire_Up_Distractor.gif"",""img/Fire_Up_Distractor.gif"",""img/Fire_Up_Distractor.gif"",""img/Fire_Up_Distractor.gif"",""img/Fire_Up_Distractor.gif"",""img/Fire_Up_Distractor.gif""]","8","targetDown_distractorsUp"
"","","","","","html-keyboard-response","96","490445","0.0-14.0-0.0-0.41","5f2f31201649be31653dabc5","619531dcf66c91622fa1b861","61959691a36b74f687baa825","null","","null","","","","","main_T1_ITI","","","","",""
"","","","","","visual-search-circle","97","492580","0.0-14.0-0.0-1.41","5f2f31201649be31653dabc5","619531dcf66c91622fa1b861","61959691a36b74f687baa825","1128.3999999985099","","s","false","[[14,392],[163,567],[392,585],[567,436],[585,207],[436,32],[207,14],[32,163]]","true","8","main_T2_Trial","d","img/Fire_Down_Target.gif","[""img/Fire_Up_Distractor.gif"",""img/Fire_Up_Distractor.gif"",""img/Fire_Up_Distractor.gif"",""img/Fire_Up_Distractor.gif"",""img/Fire_Up_Distractor.gif"",""img/Fire_Up_Distractor.gif"",""img/Fire_Up_Distractor.gif"",""img/Fire_Up_Distractor.gif"",""img/Fire_Up_Distractor.gif"",""img/Fire_Up_Distractor.gif"",""img/Fire_Up_Distractor.gif"",""img/Fire_Up_Distractor.gif""]","8","targetDown_distractorsUp"
"","","","","","html-keyboard-response","98","492588","0.0-14.0-0.0-0.42","5f2f31201649be31653dabc5","619531dcf66c91622fa1b861","61959691a36b74f687baa825","null","","null","","","","","main_T1_ITI","","","","",""
"","","","","","visual-search-circle","99","494699","0.0-14.0-0.0-1.42","5f2f31201649be31653dabc5","619531dcf66c91622fa1b861","61959691a36b74f687baa825","1093.7000000029802","","d","true","[[567,436],[551,136],[284,0],[32,163],[48,463],[315,599]]","true","6","main_T2_Trial","d","img/Fire_Up_Target.gif","[""img/Fire_Down_Distractor.gif"",""img/Fire_Down_Distractor.gif"",""img/Fire_Down_Distractor.gif"",""img/Fire_Down_Distractor.gif"",""img/Fire_Down_Distractor.gif"",""img/Fire_Down_Distractor.gif"",""img/Fire_Down_Distractor.gif"",""img/Fire_Down_Distractor.gif"",""img/Fire_Down_Distractor.gif"",""img/Fire_Down_Distractor.gif"",""img/Fire_Down_Distractor.gif"",""img/Fire_Down_Distractor.gif""]","6","targetUp_distractorsDown"
"","","","","","html-keyboard-response","100","494701","0.0-14.0-0.0-0.43","5f2f31201649be31653dabc5","619531dcf66c91622fa1b861","61959691a36b74f687baa825","null","","null","","","","","main_T1_ITI","","","","",""
"","","","","","visual-search-circle","101","497101","0.0-14.0-0.0-1.43","5f2f31201649be31653dabc5","619531dcf66c91622fa1b861","61959691a36b74f687baa825","1390.199999999255","","d","true","[[141,554],[367,592],[554,458],[592,232],[458,45],[232,7],[45,141],[7,367]]","true","8","main_T2_Trial","d","img/Fire_Down_Target.gif","[""img/Fire_Up_Distractor.gif"",""img/Fire_Up_Distractor.gif"",""img/Fire_Up_Distractor.gif"",""img/Fire_Up_Distractor.gif"",""img/Fire_Up_Distractor.gif"",""img/Fire_Up_Distractor.gif"",""img/Fire_Up_Distractor.gif"",""img/Fire_Up_Distractor.gif"",""img/Fire_Up_Distractor.gif"",""img/Fire_Up_Distractor.gif"",""img/Fire_Up_Distractor.gif"",""img/Fire_Up_Distractor.gif""]","8","targetDown_distractorsUp"
"","","","","","html-keyboard-response","102","497104","0.0-14.0-0.0-0.44","5f2f31201649be31653dabc5","619531dcf66c91622fa1b861","61959691a36b74f687baa825","null","","null","","","","","main_T1_ITI","","","","",""
"","","","","","visual-search-circle","103","499094","0.0-14.0-0.0-1.44","5f2f31201649be31653dabc5","619531dcf66c91622fa1b861","61959691a36b74f687baa825","983.6000000014901","","s","true","[[397,583],[583,202],[202,16],[16,397]]","false","4","main_T2_Trial","s","img/Fire_Up_Target.gif","[""img/Fire_Down_Distractor.gif"",""img/Fire_Down_Distractor.gif"",""img/Fire_Down_Distractor.gif"",""img/Fire_Down_Distractor.gif"",""img/Fire_Down_Distractor.gif"",""img/Fire_Down_Distractor.gif"",""img/Fire_Down_Distractor.gif"",""img/Fire_Down_Distractor.gif"",""img/Fire_Down_Distractor.gif"",""img/Fire_Down_Distractor.gif"",""img/Fire_Down_Distractor.gif"",""img/Fire_Down_Distractor.gif""]","4","targetUp_distractorsDown"
"","","","","","html-keyboard-response","104","499099","0.0-14.0-0.0-0.45","5f2f31201649be31653dabc5","619531dcf66c91622fa1b861","61959691a36b74f687baa825","null","","null","","","","","main_T1_ITI","","","","",""
"","","","","","visual-search-circle","105","501742","0.0-14.0-0.0-1.45","5f2f31201649be31653dabc5","619531dcf66c91622fa1b861","61959691a36b74f687baa825","1624.699999999255","","s","true","[[472,545],[595,352],[545,127],[352,4],[127,54],[4,247],[54,472],[247,595]]","false","8","main_T2_Trial","s","img/Fire_Down_Target.gif","[""img/Fire_Up_Distractor.gif"",""img/Fire_Up_Distractor.gif"",""img/Fire_Up_Distractor.gif"",""img/Fire_Up_Distractor.gif"",""img/Fire_Up_Distractor.gif"",""img/Fire_Up_Distractor.gif"",""img/Fire_Up_Distractor.gif"",""img/Fire_Up_Distractor.gif"",""img/Fire_Up_Distractor.gif"",""img/Fire_Up_Distractor.gif"",""img/Fire_Up_Distractor.gif"",""img/Fire_Up_Distractor.gif""]","8","targetDown_distractorsUp"
"","","","","","html-keyboard-response","106","501744","0.0-14.0-0.0-0.46","5f2f31201649be31653dabc5","619531dcf66c91622fa1b861","61959691a36b74f687baa825","null","","null","","","","","main_T1_ITI","","","","",""
"","","","","","visual-search-circle","107","503702","0.0-14.0-0.0-1.46","5f2f31201649be31653dabc5","619531dcf66c91622fa1b861","61959691a36b74f687baa825","952.6000000014901","","d","true","[[35,159],[159,564],[564,440],[440,35]]","true","4","main_T2_Trial","d","img/Fire_Up_Target.gif","[""img/Fire_Down_Distractor.gif"",""img/Fire_Down_Distractor.gif"",""img/Fire_Down_Distractor.gif"",""img/Fire_Down_Distractor.gif"",""img/Fire_Down_Distractor.gif"",""img/Fire_Down_Distractor.gif"",""img/Fire_Down_Distractor.gif"",""img/Fire_Down_Distractor.gif"",""img/Fire_Down_Distractor.gif"",""img/Fire_Down_Distractor.gif"",""img/Fire_Down_Distractor.gif"",""img/Fire_Down_Distractor.gif""]","4","targetUp_distractorsDown"
"","","","","","html-keyboard-response","108","503704","0.0-14.0-0.0-0.47","5f2f31201649be31653dabc5","619531dcf66c91622fa1b861","61959691a36b74f687baa825","null","","null","","","","","main_T1_ITI","","","","",""
"","","","","","visual-search-circle","109","505478","0.0-14.0-0.0-1.47","5f2f31201649be31653dabc5","619531dcf66c91622fa1b861","61959691a36b74f687baa825","759.5","","d","true","[[586,212],[440,35],[212,13],[35,159],[13,387],[159,564],[387,586],[564,440]]","true","8","main_T2_Trial","d","img/Fire_Up_Target.gif","[""img/Fire_Down_Distractor.gif"",""img/Fire_Down_Distractor.gif"",""img/Fire_Down_Distractor.gif"",""img/Fire_Down_Distractor.gif"",""img/Fire_Down_Distractor.gif"",""img/Fire_Down_Distractor.gif"",""img/Fire_Down_Distractor.gif"",""img/Fire_Down_Distractor.gif"",""img/Fire_Down_Distractor.gif"",""img/Fire_Down_Distractor.gif"",""img/Fire_Down_Distractor.gif"",""img/Fire_Down_Distractor.gif""]","8","targetUp_distractorsDown"
"","","","","","html-keyboard-response","110","505479","0.0-14.0-0.0-0.48","5f2f31201649be31653dabc5","619531dcf66c91622fa1b861","61959691a36b74f687baa825","null","","null","","","","","main_T1_ITI","","","","",""
"","","","","","visual-search-circle","111","507438","0.0-14.0-0.0-1.48","5f2f31201649be31653dabc5","619531dcf66c91622fa1b861","61959691a36b74f687baa825","954.7999999970198","","s","true","[[562,445],[519,95],[173,28],[2,336],[242,594]]","false","5","main_T2_Trial","s","img/Fire_Up_Target.gif","[""img/Fire_Down_Distractor.gif"",""img/Fire_Down_Distractor.gif"",""img/Fire_Down_Distractor.gif"",""img/Fire_Down_Distractor.gif"",""img/Fire_Down_Distractor.gif"",""img/Fire_Down_Distractor.gif"",""img/Fire_Down_Distractor.gif"",""img/Fire_Down_Distractor.gif"",""img/Fire_Down_Distractor.gif"",""img/Fire_Down_Distractor.gif"",""img/Fire_Down_Distractor.gif"",""img/Fire_Down_Distractor.gif""]","5","targetUp_distractorsDown"
"","","","","","html-keyboard-response","112","507444","0.0-14.0-0.0-0.49","5f2f31201649be31653dabc5","619531dcf66c91622fa1b861","61959691a36b74f687baa825","null","","null","","","","","main_T1_ITI","","","","",""
"","","","","","visual-search-circle","113","509470","0.0-14.0-0.0-1.49","5f2f31201649be31653dabc5","619531dcf66c91622fa1b861","61959691a36b74f687baa825","1017.2000000029802","","s","true","[[305,0],[91,84],[0,294],[84,508],[294,599],[508,515],[599,305],[515,91]]","false","8","main_T2_Trial","s","img/Fire_Down_Target.gif","[""img/Fire_Up_Distractor.gif"",""img/Fire_Up_Distractor.gif"",""img/Fire_Up_Distractor.gif"",""img/Fire_Up_Distractor.gif"",""img/Fire_Up_Distractor.gif"",""img/Fire_Up_Distractor.gif"",""img/Fire_Up_Distractor.gif"",""img/Fire_Up_Distractor.gif"",""img/Fire_Up_Distractor.gif"",""img/Fire_Up_Distractor.gif"",""img/Fire_Up_Distractor.gif"",""img/Fire_Up_Distractor.gif""]","8","targetDown_distractorsUp"
"","","","","","html-keyboard-response","114","509473","0.0-14.0-0.0-0.50","5f2f31201649be31653dabc5","619531dcf66c91622fa1b861","61959691a36b74f687baa825","null","","null","","","","","main_T1_ITI","","","","",""
"","","","","","visual-search-circle","115","511261","0.0-14.0-0.0-1.50","5f2f31201649be31653dabc5","619531dcf66c91622fa1b861","61959691a36b74f687baa825","771.4000000022352","","d","true","[[595,247],[341,2],[30,168],[91,515],[440,564]]","true","5","main_T2_Trial","d","img/Fire_Up_Target.gif","[""img/Fire_Down_Distractor.gif"",""img/Fire_Down_Distractor.gif"",""img/Fire_Down_Distractor.gif"",""img/Fire_Down_Distractor.gif"",""img/Fire_Down_Distractor.gif"",""img/Fire_Down_Distractor.gif"",""img/Fire_Down_Distractor.gif"",""img/Fire_Down_Distractor.gif"",""img/Fire_Down_Distractor.gif"",""img/Fire_Down_Distractor.gif"",""img/Fire_Down_Distractor.gif"",""img/Fire_Down_Distractor.gif""]","5","targetUp_distractorsDown"
"","","","","","html-keyboard-response","116","511263","0.0-14.0-0.0-0.51","5f2f31201649be31653dabc5","619531dcf66c91622fa1b861","61959691a36b74f687baa825","null","","null","","","","","main_T1_ITI","","","","",""
"","","","","","visual-search-circle","117","513382","0.0-14.0-0.0-1.51","5f2f31201649be31653dabc5","619531dcf66c91622fa1b861","61959691a36b74f687baa825","1107.1000000014901","","d","true","[[227,8],[8,372],[372,591],[591,227]]","true","4","main_T2_Trial","d","img/Fire_Down_Target.gif","[""img/Fire_Up_Distractor.gif"",""img/Fire_Up_Distractor.gif"",""img/Fire_Up_Distractor.gif"",""img/Fire_Up_Distractor.gif"",""img/Fire_Up_Distractor.gif"",""img/Fire_Up_Distractor.gif"",""img/Fire_Up_Distractor.gif"",""img/Fire_Up_Distractor.gif"",""img/Fire_Up_Distractor.gif"",""img/Fire_Up_Distractor.gif"",""img/Fire_Up_Distractor.gif"",""img/Fire_Up_Distractor.gif""]","4","targetDown_distractorsUp"
"","","","","","html-keyboard-response","118","513383","0.0-14.0-0.0-0.52","5f2f31201649be31653dabc5","619531dcf66c91622fa1b861","61959691a36b74f687baa825","null","","null","","","","","main_T1_ITI","","","","",""
"","","","","","visual-search-circle","119","515350","0.0-14.0-0.0-1.52","5f2f31201649be31653dabc5","619531dcf66c91622fa1b861","61959691a36b74f687baa825","951.2999999970198","","d","true","[[42,454],[260,597],[507,516],[598,272],[464,49],[206,14],[18,195]]","true","7","main_T2_Trial","d","img/Fire_Down_Target.gif","[""img/Fire_Up_Distractor.gif"",""img/Fire_Up_Distractor.gif"",""img/Fire_Up_Distractor.gif"",""img/Fire_Up_Distractor.gif"",""img/Fire_Up_Distractor.gif"",""img/Fire_Up_Distractor.gif"",""img/Fire_Up_Distractor.gif"",""img/Fire_Up_Distractor.gif"",""img/Fire_Up_Distractor.gif"",""img/Fire_Up_Distractor.gif"",""img/Fire_Up_Distractor.gif"",""img/Fire_Up_Distractor.gif""]","7","targetDown_distractorsUp"
"","","","","","html-keyboard-response","120","515352","0.0-14.0-0.0-0.53","5f2f31201649be31653dabc5","619531dcf66c91622fa1b861","61959691a36b74f687baa825","null","","null","","","","","main_T1_ITI","","","","",""
"","","","","","visual-search-circle","121","517630","0.0-14.0-0.0-1.53","5f2f31201649be31653dabc5","619531dcf66c91622fa1b861","61959691a36b74f687baa825","1269.9000000022352","","d","true","[[0,289],[289,599],[599,310],[310,0]]","true","4","main_T2_Trial","d","img/Fire_Up_Target.gif","[""img/Fire_Down_Distractor.gif"",""img/Fire_Down_Distractor.gif"",""img/Fire_Down_Distractor.gif"",""img/Fire_Down_Distractor.gif"",""img/Fire_Down_Distractor.gif"",""img/Fire_Down_Distractor.gif"",""img/Fire_Down_Distractor.gif"",""img/Fire_Down_Distractor.gif"",""img/Fire_Down_Distractor.gif"",""img/Fire_Down_Distractor.gif"",""img/Fire_Down_Distractor.gif"",""img/Fire_Down_Distractor.gif""]","4","targetUp_distractorsDown"
"","","","","","html-keyboard-response","122","517631","0.0-14.0-0.0-0.54","5f2f31201649be31653dabc5","619531dcf66c91622fa1b861","61959691a36b74f687baa825","null","","null","","","","","main_T1_ITI","","","","",""
"","","","","","visual-search-circle","123","519662","0.0-14.0-0.0-1.54","5f2f31201649be31653dabc5","619531dcf66c91622fa1b861","61959691a36b74f687baa825","1014.5","","d","true","[[197,18],[18,402],[402,581],[581,197]]","true","4","main_T2_Trial","d","img/Fire_Down_Target.gif","[""img/Fire_Up_Distractor.gif"",""img/Fire_Up_Distractor.gif"",""img/Fire_Up_Distractor.gif"",""img/Fire_Up_Distractor.gif"",""img/Fire_Up_Distractor.gif"",""img/Fire_Up_Distractor.gif"",""img/Fire_Up_Distractor.gif"",""img/Fire_Up_Distractor.gif"",""img/Fire_Up_Distractor.gif"",""img/Fire_Up_Distractor.gif"",""img/Fire_Up_Distractor.gif"",""img/Fire_Up_Distractor.gif""]","4","targetDown_distractorsUp"
"","","","","","html-keyboard-response","124","519663","0.0-14.0-0.0-0.55","5f2f31201649be31653dabc5","619531dcf66c91622fa1b861","61959691a36b74f687baa825","null","","null","","","","","main_T1_ITI","","","","",""
"","","","","","visual-search-circle","125","521670","0.0-14.0-0.0-1.55","5f2f31201649be31653dabc5","619531dcf66c91622fa1b861","61959691a36b74f687baa825","994.5999999977648","","d","true","[[8,227],[42,454],[227,591],[454,557],[591,372],[557,145],[372,8],[145,42]]","true","8","main_T2_Trial","d","img/Fire_Up_Target.gif","[""img/Fire_Down_Distractor.gif"",""img/Fire_Down_Distractor.gif"",""img/Fire_Down_Distractor.gif"",""img/Fire_Down_Distractor.gif"",""img/Fire_Down_Distractor.gif"",""img/Fire_Down_Distractor.gif"",""img/Fire_Down_Distractor.gif"",""img/Fire_Down_Distractor.gif"",""img/Fire_Down_Distractor.gif"",""img/Fire_Down_Distractor.gif"",""img/Fire_Down_Distractor.gif"",""img/Fire_Down_Distractor.gif""]","8","targetUp_distractorsDown"
"","","","","","html-keyboard-response","126","521671","0.0-14.0-0.0-0.56","5f2f31201649be31653dabc5","619531dcf66c91622fa1b861","61959691a36b74f687baa825","null","","null","","","","","main_T1_ITI","","","","",""
"","","","","","visual-search-circle","127","523598","0.0-14.0-0.0-1.56","5f2f31201649be31653dabc5","619531dcf66c91622fa1b861","61959691a36b74f687baa825","910.6999999992549","","s","true","[[84,508],[294,599],[508,515],[599,305],[515,91],[305,0],[91,84],[0,294]]","false","8","main_T2_Trial","s","img/Fire_Down_Target.gif","[""img/Fire_Up_Distractor.gif"",""img/Fire_Up_Distractor.gif"",""img/Fire_Up_Distractor.gif"",""img/Fire_Up_Distractor.gif"",""img/Fire_Up_Distractor.gif"",""img/Fire_Up_Distractor.gif"",""img/Fire_Up_Distractor.gif"",""img/Fire_Up_Distractor.gif"",""img/Fire_Up_Distractor.gif"",""img/Fire_Up_Distractor.gif"",""img/Fire_Up_Distractor.gif"",""img/Fire_Up_Distractor.gif""]","8","targetDown_distractorsUp"
"","","","","","html-keyboard-response","128","523600","0.0-14.0-0.0-0.57","5f2f31201649be31653dabc5","619531dcf66c91622fa1b861","61959691a36b74f687baa825","null","","null","","","","","main_T1_ITI","","","","",""
"","","","","","visual-search-circle","129","525886","0.0-14.0-0.0-1.57","5f2f31201649be31653dabc5","619531dcf66c91622fa1b861","61959691a36b74f687baa825","1282.699999999255","","s","true","[[599,310],[458,45],[159,35],[0,289],[141,554],[440,564]]","false","6","main_T2_Trial","s","img/Fire_Down_Target.gif","[""img/Fire_Up_Distractor.gif"",""img/Fire_Up_Distractor.gif"",""img/Fire_Up_Distractor.gif"",""img/Fire_Up_Distractor.gif"",""img/Fire_Up_Distractor.gif"",""img/Fire_Up_Distractor.gif"",""img/Fire_Up_Distractor.gif"",""img/Fire_Up_Distractor.gif"",""img/Fire_Up_Distractor.gif"",""img/Fire_Up_Distractor.gif"",""img/Fire_Up_Distractor.gif"",""img/Fire_Up_Distractor.gif""]","6","targetDown_distractorsUp"
"","","","","","html-keyboard-response","130","525888","0.0-14.0-0.0-0.58","5f2f31201649be31653dabc5","619531dcf66c91622fa1b861","61959691a36b74f687baa825","null","","null","","","","","main_T1_ITI","","","","",""
"","","","","","visual-search-circle","131","528030","0.0-14.0-0.0-1.58","5f2f31201649be31653dabc5","619531dcf66c91622fa1b861","61959691a36b74f687baa825","1120.300000000745","","s","true","[[536,484],[597,263],[484,63],[263,2],[63,115],[2,336],[115,536],[336,597]]","false","8","main_T2_Trial","s","img/Fire_Down_Target.gif","[""img/Fire_Up_Distractor.gif"",""img/Fire_Up_Distractor.gif"",""img/Fire_Up_Distractor.gif"",""img/Fire_Up_Distractor.gif"",""img/Fire_Up_Distractor.gif"",""img/Fire_Up_Distractor.gif"",""img/Fire_Up_Distractor.gif"",""img/Fire_Up_Distractor.gif"",""img/Fire_Up_Distractor.gif"",""img/Fire_Up_Distractor.gif"",""img/Fire_Up_Distractor.gif"",""img/Fire_Up_Distractor.gif""]","8","targetDown_distractorsUp"
"","","","","","html-keyboard-response","132","529310","0.0-14.0-0.0-0.59","5f2f31201649be31653dabc5","619531dcf66c91622fa1b861","61959691a36b74f687baa825","1279.5","Wow! You've completed 60 out of 160 trials! </p> <p>  </p><p> Take a quick break, then press any key when you're ready to continue.","d","","","","","main_T1_ITI","","","","",""
"","","","","","visual-search-circle","133","531646","0.0-14.0-0.0-1.59","5f2f31201649be31653dabc5","619531dcf66c91622fa1b861","61959691a36b74f687baa825","1321.800000000745","","s","false","[[492,70],[70,107],[107,529],[529,492]]","true","4","main_T2_Trial","d","img/Fire_Up_Target.gif","[""img/Fire_Down_Distractor.gif"",""img/Fire_Down_Distractor.gif"",""img/Fire_Down_Distractor.gif"",""img/Fire_Down_Distractor.gif"",""img/Fire_Down_Distractor.gif"",""img/Fire_Down_Distractor.gif"",""img/Fire_Down_Distractor.gif"",""img/Fire_Down_Distractor.gif"",""img/Fire_Down_Distractor.gif"",""img/Fire_Down_Distractor.gif"",""img/Fire_Down_Distractor.gif"",""img/Fire_Down_Distractor.gif""]","4","targetUp_distractorsDown"
"","","","","","html-keyboard-response","134","531647","0.0-14.0-0.0-0.60","5f2f31201649be31653dabc5","619531dcf66c91622fa1b861","61959691a36b74f687baa825","null","","null","","","","","main_T1_ITI","","","","",""
"","","","","","visual-search-circle","135","534071","0.0-14.0-0.0-1.60","5f2f31201649be31653dabc5","619531dcf66c91622fa1b861","61959691a36b74f687baa825","1408.199999999255","","s","true","[[247,595],[529,492],[581,197],[352,4],[70,107],[18,402]]","false","6","main_T2_Trial","s","img/Fire_Up_Target.gif","[""img/Fire_Down_Distractor.gif"",""img/Fire_Down_Distractor.gif"",""img/Fire_Down_Distractor.gif"",""img/Fire_Down_Distractor.gif"",""img/Fire_Down_Distractor.gif"",""img/Fire_Down_Distractor.gif"",""img/Fire_Down_Distractor.gif"",""img/Fire_Down_Distractor.gif"",""img/Fire_Down_Distractor.gif"",""img/Fire_Down_Distractor.gif"",""img/Fire_Down_Distractor.gif"",""img/Fire_Down_Distractor.gif""]","6","targetUp_distractorsDown"
"","","","","","html-keyboard-response","136","534081","0.0-14.0-0.0-0.61","5f2f31201649be31653dabc5","619531dcf66c91622fa1b861","61959691a36b74f687baa825","null","","null","","","","","main_T1_ITI","","","","",""
"","","","","","visual-search-circle","137","536079","0.0-14.0-0.0-1.61","5f2f31201649be31653dabc5","619531dcf66c91622fa1b861","61959691a36b74f687baa825","978.6000000014901","","d","true","[[91,515],[338,597],[556,455],[581,195],[394,15],[135,48],[1,271]]","true","7","main_T2_Trial","d","img/Fire_Down_Target.gif","[""img/Fire_Up_Distractor.gif"",""img/Fire_Up_Distractor.gif"",""img/Fire_Up_Distractor.gif"",""img/Fire_Up_Distractor.gif"",""img/Fire_Up_Distractor.gif"",""img/Fire_Up_Distractor.gif"",""img/Fire_Up_Distractor.gif"",""img/Fire_Up_Distractor.gif"",""img/Fire_Up_Distractor.gif"",""img/Fire_Up_Distractor.gif"",""img/Fire_Up_Distractor.gif"",""img/Fire_Up_Distractor.gif""]","7","targetDown_distractorsUp"
"","","","","","html-keyboard-response","138","536087","0.0-14.0-0.0-0.62","5f2f31201649be31653dabc5","619531dcf66c91622fa1b861","61959691a36b74f687baa825","null","","null","","","","","main_T1_ITI","","","","",""
"","","","","","visual-search-circle","139","538790","0.0-14.0-0.0-1.62","5f2f31201649be31653dabc5","619531dcf66c91622fa1b861","61959691a36b74f687baa825","1690.5","","s","false","[[592,232],[232,7],[7,367],[367,592]]","true","4","main_T2_Trial","d","img/Fire_Up_Target.gif","[""img/Fire_Down_Distractor.gif"",""img/Fire_Down_Distractor.gif"",""img/Fire_Down_Distractor.gif"",""img/Fire_Down_Distractor.gif"",""img/Fire_Down_Distractor.gif"",""img/Fire_Down_Distractor.gif"",""img/Fire_Down_Distractor.gif"",""img/Fire_Down_Distractor.gif"",""img/Fire_Down_Distractor.gif"",""img/Fire_Down_Distractor.gif"",""img/Fire_Down_Distractor.gif"",""img/Fire_Down_Distractor.gif""]","4","targetUp_distractorsDown"
"","","","","","html-keyboard-response","140","538791","0.0-14.0-0.0-0.63","5f2f31201649be31653dabc5","619531dcf66c91622fa1b861","61959691a36b74f687baa825","null","","null","","","","","main_T1_ITI","","","","",""
"","","","","","visual-search-circle","141","540726","0.0-14.0-0.0-1.63","5f2f31201649be31653dabc5","619531dcf66c91622fa1b861","61959691a36b74f687baa825","923.0999999977648","","s","true","[[0,299],[87,512],[299,600],[512,512],[600,300],[512,87],[300,0],[87,87]]","false","8","main_T2_Trial","s","img/Fire_Up_Target.gif","[""img/Fire_Down_Distractor.gif"",""img/Fire_Down_Distractor.gif"",""img/Fire_Down_Distractor.gif"",""img/Fire_Down_Distractor.gif"",""img/Fire_Down_Distractor.gif"",""img/Fire_Down_Distractor.gif"",""img/Fire_Down_Distractor.gif"",""img/Fire_Down_Distractor.gif"",""img/Fire_Down_Distractor.gif"",""img/Fire_Down_Distractor.gif"",""img/Fire_Down_Distractor.gif"",""img/Fire_Down_Distractor.gif""]","8","targetUp_distractorsDown"
"","","","","","html-keyboard-response","142","540728","0.0-14.0-0.0-0.64","5f2f31201649be31653dabc5","619531dcf66c91622fa1b861","61959691a36b74f687baa825","null","","null","","","","","main_T1_ITI","","","","",""
"","","","","","visual-search-circle","143","543006","0.0-14.0-0.0-1.64","5f2f31201649be31653dabc5","619531dcf66c91622fa1b861","61959691a36b74f687baa825","1270.800000000745","","s","true","[[593,362],[362,6],[6,237],[237,593]]","false","4","main_T2_Trial","s","img/Fire_Up_Target.gif","[""img/Fire_Down_Distractor.gif"",""img/Fire_Down_Distractor.gif"",""img/Fire_Down_Distractor.gif"",""img/Fire_Down_Distractor.gif"",""img/Fire_Down_Distractor.gif"",""img/Fire_Down_Distractor.gif"",""img/Fire_Down_Distractor.gif"",""img/Fire_Down_Distractor.gif"",""img/Fire_Down_Distractor.gif"",""img/Fire_Down_Distractor.gif"",""img/Fire_Down_Distractor.gif"",""img/Fire_Down_Distractor.gif""]","4","targetUp_distractorsDown"
"","","","","","html-keyboard-response","144","543007","0.0-14.0-0.0-0.65","5f2f31201649be31653dabc5","619531dcf66c91622fa1b861","61959691a36b74f687baa825","null","","null","","","","","main_T1_ITI","","","","",""
"","","","","","visual-search-circle","145","544878","0.0-14.0-0.0-1.65","5f2f31201649be31653dabc5","619531dcf66c91622fa1b861","61959691a36b74f687baa825","854.5","","d","true","[[202,16],[5,242],[103,526],[397,583],[594,357],[496,73]]","true","6","main_T2_Trial","d","img/Fire_Up_Target.gif","[""img/Fire_Down_Distractor.gif"",""img/Fire_Down_Distractor.gif"",""img/Fire_Down_Distractor.gif"",""img/Fire_Down_Distractor.gif"",""img/Fire_Down_Distractor.gif"",""img/Fire_Down_Distractor.gif"",""img/Fire_Down_Distractor.gif"",""img/Fire_Down_Distractor.gif"",""img/Fire_Down_Distractor.gif"",""img/Fire_Down_Distractor.gif"",""img/Fire_Down_Distractor.gif"",""img/Fire_Down_Distractor.gif""]","6","targetUp_distractorsDown"
"","","","","","html-keyboard-response","146","544879","0.0-14.0-0.0-0.66","5f2f31201649be31653dabc5","619531dcf66c91622fa1b861","61959691a36b74f687baa825","null","","null","","","","","main_T1_ITI","","","","",""
"","","","","","visual-search-circle","147","546935","0.0-14.0-0.0-1.66","5f2f31201649be31653dabc5","619531dcf66c91622fa1b861","61959691a36b74f687baa825","1040.6000000014901","","d","false","[[431,30],[202,16],[30,168],[16,397],[168,569],[397,583],[569,431],[583,202]]","false","8","main_T2_Trial","s","img/Fire_Down_Target.gif","[""img/Fire_Up_Distractor.gif"",""img/Fire_Up_Distractor.gif"",""img/Fire_Up_Distractor.gif"",""img/Fire_Up_Distractor.gif"",""img/Fire_Up_Distractor.gif"",""img/Fire_Up_Distractor.gif"",""img/Fire_Up_Distractor.gif"",""img/Fire_Up_Distractor.gif"",""img/Fire_Up_Distractor.gif"",""img/Fire_Up_Distractor.gif"",""img/Fire_Up_Distractor.gif"",""img/Fire_Up_Distractor.gif""]","8","targetDown_distractorsUp"
"","","","","","html-keyboard-response","148","546938","0.0-14.0-0.0-0.67","5f2f31201649be31653dabc5","619531dcf66c91622fa1b861","61959691a36b74f687baa825","null","","null","","","","","main_T1_ITI","","","","",""
"","","","","","visual-search-circle","149","548950","0.0-14.0-0.0-1.67","5f2f31201649be31653dabc5","619531dcf66c91622fa1b861","61959691a36b74f687baa825","991.8000000007451","","d","true","[[237,6],[1,268],[177,574],[522,500],[559,150]]","true","5","main_T2_Trial","d","img/Fire_Up_Target.gif","[""img/Fire_Down_Distractor.gif"",""img/Fire_Down_Distractor.gif"",""img/Fire_Down_Distractor.gif"",""img/Fire_Down_Distractor.gif"",""img/Fire_Down_Distractor.gif"",""img/Fire_Down_Distractor.gif"",""img/Fire_Down_Distractor.gif"",""img/Fire_Down_Distractor.gif"",""img/Fire_Down_Distractor.gif"",""img/Fire_Down_Distractor.gif"",""img/Fire_Down_Distractor.gif"",""img/Fire_Down_Distractor.gif""]","5","targetUp_distractorsDown"
"","","","","","html-keyboard-response","150","548952","0.0-14.0-0.0-0.68","5f2f31201649be31653dabc5","619531dcf66c91622fa1b861","61959691a36b74f687baa825","null","","null","","","","","main_T1_ITI","","","","",""
"","","","","","visual-search-circle","151","551606","0.0-14.0-0.0-1.68","5f2f31201649be31653dabc5","619531dcf66c91622fa1b861","61959691a36b74f687baa825","1642.199999999255","","d","true","[[548,467],[569,168],[320,0],[51,132],[30,431],[279,599]]","true","6","main_T2_Trial","d","img/Fire_Down_Target.gif","[""img/Fire_Up_Distractor.gif"",""img/Fire_Up_Distractor.gif"",""img/Fire_Up_Distractor.gif"",""img/Fire_Up_Distractor.gif"",""img/Fire_Up_Distractor.gif"",""img/Fire_Up_Distractor.gif"",""img/Fire_Up_Distractor.gif"",""img/Fire_Up_Distractor.gif"",""img/Fire_Up_Distractor.gif"",""img/Fire_Up_Distractor.gif"",""img/Fire_Up_Distractor.gif"",""img/Fire_Up_Distractor.gif""]","6","targetDown_distractorsUp"
"","","","","","html-keyboard-response","152","551609","0.0-14.0-0.0-0.69","5f2f31201649be31653dabc5","619531dcf66c91622fa1b861","61959691a36b74f687baa825","null","","null","","","","","main_T1_ITI","","","","",""
"","","","","","visual-search-circle","153","553893","0.0-14.0-0.0-1.69","5f2f31201649be31653dabc5","619531dcf66c91622fa1b861","61959691a36b74f687baa825","1263.4000000022352","","d","true","[[45,458],[372,591],[599,320],[412,21],[70,107]]","true","5","main_T2_Trial","d","img/Fire_Up_Target.gif","[""img/Fire_Down_Distractor.gif"",""img/Fire_Down_Distractor.gif"",""img/Fire_Down_Distractor.gif"",""img/Fire_Down_Distractor.gif"",""img/Fire_Down_Distractor.gif"",""img/Fire_Down_Distractor.gif"",""img/Fire_Down_Distractor.gif"",""img/Fire_Down_Distractor.gif"",""img/Fire_Down_Distractor.gif"",""img/Fire_Down_Distractor.gif"",""img/Fire_Down_Distractor.gif"",""img/Fire_Down_Distractor.gif""]","5","targetUp_distractorsDown"
"","","","","","html-keyboard-response","154","553906","0.0-14.0-0.0-0.70","5f2f31201649be31653dabc5","619531dcf66c91622fa1b861","61959691a36b74f687baa825","null","","null","","","","","main_T1_ITI","","","","",""
"","","","","","visual-search-circle","155","556062","0.0-14.0-0.0-1.70","5f2f31201649be31653dabc5","619531dcf66c91622fa1b861","61959691a36b74f687baa825","1144.4000000022352","","d","true","[[80,504],[426,571],[597,263],[357,5],[37,154]]","true","5","main_T2_Trial","d","img/Fire_Down_Target.gif","[""img/Fire_Up_Distractor.gif"",""img/Fire_Up_Distractor.gif"",""img/Fire_Up_Distractor.gif"",""img/Fire_Up_Distractor.gif"",""img/Fire_Up_Distractor.gif"",""img/Fire_Up_Distractor.gif"",""img/Fire_Up_Distractor.gif"",""img/Fire_Up_Distractor.gif"",""img/Fire_Up_Distractor.gif"",""img/Fire_Up_Distractor.gif"",""img/Fire_Up_Distractor.gif"",""img/Fire_Up_Distractor.gif""]","5","targetDown_distractorsUp"
"","","","","","html-keyboard-response","156","556064","0.0-14.0-0.0-0.71","5f2f31201649be31653dabc5","619531dcf66c91622fa1b861","61959691a36b74f687baa825","null","","null","","","","","main_T1_ITI","","","","",""
"","","","","","visual-search-circle","157","558286","0.0-14.0-0.0-1.71","5f2f31201649be31653dabc5","619531dcf66c91622fa1b861","61959691a36b74f687baa825","1216.699999999255","","s","true","[[4,247],[247,595],[595,352],[352,4]]","false","4","main_T2_Trial","s","img/Fire_Down_Target.gif","[""img/Fire_Up_Distractor.gif"",""img/Fire_Up_Distractor.gif"",""img/Fire_Up_Distractor.gif"",""img/Fire_Up_Distractor.gif"",""img/Fire_Up_Distractor.gif"",""img/Fire_Up_Distractor.gif"",""img/Fire_Up_Distractor.gif"",""img/Fire_Up_Distractor.gif"",""img/Fire_Up_Distractor.gif"",""img/Fire_Up_Distractor.gif"",""img/Fire_Up_Distractor.gif"",""img/Fire_Up_Distractor.gif""]","4","targetDown_distractorsUp"
"","","","","","html-keyboard-response","158","558292","0.0-14.0-0.0-0.72","5f2f31201649be31653dabc5","619531dcf66c91622fa1b861","61959691a36b74f687baa825","null","","null","","","","","main_T1_ITI","","","","",""
"","","","","","visual-search-circle","159","560510","0.0-14.0-0.0-1.72","5f2f31201649be31653dabc5","619531dcf66c91622fa1b861","61959691a36b74f687baa825","1209.6000000014901","","d","true","[[263,597],[597,336],[336,2],[2,263]]","true","4","main_T2_Trial","d","img/Fire_Down_Target.gif","[""img/Fire_Up_Distractor.gif"",""img/Fire_Up_Distractor.gif"",""img/Fire_Up_Distractor.gif"",""img/Fire_Up_Distractor.gif"",""img/Fire_Up_Distractor.gif"",""img/Fire_Up_Distractor.gif"",""img/Fire_Up_Distractor.gif"",""img/Fire_Up_Distractor.gif"",""img/Fire_Up_Distractor.gif"",""img/Fire_Up_Distractor.gif"",""img/Fire_Up_Distractor.gif"",""img/Fire_Up_Distractor.gif""]","4","targetDown_distractorsUp"
"","","","","","html-keyboard-response","160","560512","0.0-14.0-0.0-0.73","5f2f31201649be31653dabc5","619531dcf66c91622fa1b861","61959691a36b74f687baa825","null","","null","","","","","main_T1_ITI","","","","",""
"","","","","","visual-search-circle","161","562861","0.0-14.0-0.0-1.73","5f2f31201649be31653dabc5","619531dcf66c91622fa1b861","61959691a36b74f687baa825","1340","","s","false","[[426,571],[591,370],[536,115],[303,0],[67,110],[6,363],[166,568]]","true","7","main_T2_Trial","d","img/Fire_Up_Target.gif","[""img/Fire_Down_Distractor.gif"",""img/Fire_Down_Distractor.gif"",""img/Fire_Down_Distractor.gif"",""img/Fire_Down_Distractor.gif"",""img/Fire_Down_Distractor.gif"",""img/Fire_Down_Distractor.gif"",""img/Fire_Down_Distractor.gif"",""img/Fire_Down_Distractor.gif"",""img/Fire_Down_Distractor.gif"",""img/Fire_Down_Distractor.gif"",""img/Fire_Down_Distractor.gif"",""img/Fire_Down_Distractor.gif""]","7","targetUp_distractorsDown"
"","","","","","html-keyboard-response","162","562864","0.0-14.0-0.0-0.74","5f2f31201649be31653dabc5","619531dcf66c91622fa1b861","61959691a36b74f687baa825","null","","null","","","","","main_T1_ITI","","","","",""
"","","","","","visual-search-circle","163","565470","0.0-14.0-0.0-1.74","5f2f31201649be31653dabc5","619531dcf66c91622fa1b861","61959691a36b74f687baa825","1589.8999999985099","","d","true","[[232,7],[29,170],[30,430],[233,592],[487,534],[599,299],[486,64]]","true","7","main_T2_Trial","d","img/Fire_Down_Target.gif","[""img/Fire_Up_Distractor.gif"",""img/Fire_Up_Distractor.gif"",""img/Fire_Up_Distractor.gif"",""img/Fire_Up_Distractor.gif"",""img/Fire_Up_Distractor.gif"",""img/Fire_Up_Distractor.gif"",""img/Fire_Up_Distractor.gif"",""img/Fire_Up_Distractor.gif"",""img/Fire_Up_Distractor.gif"",""img/Fire_Up_Distractor.gif"",""img/Fire_Up_Distractor.gif"",""img/Fire_Up_Distractor.gif""]","7","targetDown_distractorsUp"
"","","","","","html-keyboard-response","164","565472","0.0-14.0-0.0-0.75","5f2f31201649be31653dabc5","619531dcf66c91622fa1b861","61959691a36b74f687baa825","null","","null","","","","","main_T1_ITI","","","","",""
"","","","","","visual-search-circle","165","567277","0.0-14.0-0.0-1.75","5f2f31201649be31653dabc5","619531dcf66c91622fa1b861","61959691a36b74f687baa825","795","","d","true","[[35,440],[212,586],[440,564],[586,387],[564,159],[387,13],[159,35],[13,212]]","true","8","main_T2_Trial","d","img/Fire_Down_Target.gif","[""img/Fire_Up_Distractor.gif"",""img/Fire_Up_Distractor.gif"",""img/Fire_Up_Distractor.gif"",""img/Fire_Up_Distractor.gif"",""img/Fire_Up_Distractor.gif"",""img/Fire_Up_Distractor.gif"",""img/Fire_Up_Distractor.gif"",""img/Fire_Up_Distractor.gif"",""img/Fire_Up_Distractor.gif"",""img/Fire_Up_Distractor.gif"",""img/Fire_Up_Distractor.gif"",""img/Fire_Up_Distractor.gif""]","8","targetDown_distractorsUp"
"","","","","","html-keyboard-response","166","567279","0.0-14.0-0.0-0.76","5f2f31201649be31653dabc5","619531dcf66c91622fa1b861","61959691a36b74f687baa825","null","","null","","","","","main_T1_ITI","","","","",""
"","","","","","visual-search-circle","167","569294","0.0-14.0-0.0-1.76","5f2f31201649be31653dabc5","619531dcf66c91622fa1b861","61959691a36b74f687baa825","994.8000000007451","","s","true","[[458,554],[598,334],[512,88],[267,1],[46,139],[16,398],[200,582]]","false","7","main_T2_Trial","s","img/Fire_Up_Target.gif","[""img/Fire_Down_Distractor.gif"",""img/Fire_Down_Distractor.gif"",""img/Fire_Down_Distractor.gif"",""img/Fire_Down_Distractor.gif"",""img/Fire_Down_Distractor.gif"",""img/Fire_Down_Distractor.gif"",""img/Fire_Down_Distractor.gif"",""img/Fire_Down_Distractor.gif"",""img/Fire_Down_Distractor.gif"",""img/Fire_Down_Distractor.gif"",""img/Fire_Down_Distractor.gif"",""img/Fire_Down_Distractor.gif""]","7","targetUp_distractorsDown"
"","","","","","html-keyboard-response","168","569296","0.0-14.0-0.0-0.77","5f2f31201649be31653dabc5","619531dcf66c91622fa1b861","61959691a36b74f687baa825","null","","null","","","","","main_T1_ITI","","","","",""
"","","","","","visual-search-circle","169","571885","0.0-14.0-0.0-1.77","5f2f31201649be31653dabc5","619531dcf66c91622fa1b861","61959691a36b74f687baa825","1569.5","","d","true","[[21,412],[214,587],[471,546],[599,319],[501,78],[252,3],[38,152]]","true","7","main_T2_Trial","d","img/Fire_Down_Target.gif","[""img/Fire_Up_Distractor.gif"",""img/Fire_Up_Distractor.gif"",""img/Fire_Up_Distractor.gif"",""img/Fire_Up_Distractor.gif"",""img/Fire_Up_Distractor.gif"",""img/Fire_Up_Distractor.gif"",""img/Fire_Up_Distractor.gif"",""img/Fire_Up_Distractor.gif"",""img/Fire_Up_Distractor.gif"",""img/Fire_Up_Distractor.gif"",""img/Fire_Up_Distractor.gif"",""img/Fire_Up_Distractor.gif""]","7","targetDown_distractorsUp"
"","","","","","html-keyboard-response","170","571888","0.0-14.0-0.0-0.78","5f2f31201649be31653dabc5","619531dcf66c91622fa1b861","61959691a36b74f687baa825","null","","null","","","","","main_T1_ITI","","","","",""
"","","","","","visual-search-circle","171","574638","0.0-14.0-0.0-1.78","5f2f31201649be31653dabc5","619531dcf66c91622fa1b861","61959691a36b74f687baa825","1735.8999999985099","","s","false","[[42,145],[145,557],[557,454],[454,42]]","true","4","main_T2_Trial","d","img/Fire_Down_Target.gif","[""img/Fire_Up_Distractor.gif"",""img/Fire_Up_Distractor.gif"",""img/Fire_Up_Distractor.gif"",""img/Fire_Up_Distractor.gif"",""img/Fire_Up_Distractor.gif"",""img/Fire_Up_Distractor.gif"",""img/Fire_Up_Distractor.gif"",""img/Fire_Up_Distractor.gif"",""img/Fire_Up_Distractor.gif"",""img/Fire_Up_Distractor.gif"",""img/Fire_Up_Distractor.gif"",""img/Fire_Up_Distractor.gif""]","4","targetDown_distractorsUp"
"","","","","","html-keyboard-response","172","575654","0.0-14.0-0.0-0.79","5f2f31201649be31653dabc5","619531dcf66c91622fa1b861","61959691a36b74f687baa825","1015.8000000007451","Wow! You've completed 80 out of 160 trials! </p> <p>  </p><p> Take a quick break, then press any key when you're ready to continue.","d","","","","","main_T1_ITI","","","","",""
"","","","","","visual-search-circle","173","578110","0.0-14.0-0.0-1.79","5f2f31201649be31653dabc5","619531dcf66c91622fa1b861","61959691a36b74f687baa825","1436.199999999255","","d","true","[[559,150],[344,3],[95,80],[0,322],[131,547],[388,586],[579,409]]","true","7","main_T2_Trial","d","img/Fire_Down_Target.gif","[""img/Fire_Up_Distractor.gif"",""img/Fire_Up_Distractor.gif"",""img/Fire_Up_Distractor.gif"",""img/Fire_Up_Distractor.gif"",""img/Fire_Up_Distractor.gif"",""img/Fire_Up_Distractor.gif"",""img/Fire_Up_Distractor.gif"",""img/Fire_Up_Distractor.gif"",""img/Fire_Up_Distractor.gif"",""img/Fire_Up_Distractor.gif"",""img/Fire_Up_Distractor.gif"",""img/Fire_Up_Distractor.gif""]","7","targetDown_distractorsUp"
"","","","","","html-keyboard-response","174","578112","0.0-14.0-0.0-0.80","5f2f31201649be31653dabc5","619531dcf66c91622fa1b861","61959691a36b74f687baa825","null","","null","","","","","main_T1_ITI","","","","",""
"","","","","","visual-search-circle","175","580110","0.0-14.0-0.0-1.80","5f2f31201649be31653dabc5","619531dcf66c91622fa1b861","61959691a36b74f687baa825","989.7000000029802","","s","true","[[23,417],[263,597],[539,480],[576,182],[336,2],[60,119]]","false","6","main_T2_Trial","s","img/Fire_Down_Target.gif","[""img/Fire_Up_Distractor.gif"",""img/Fire_Up_Distractor.gif"",""img/Fire_Up_Distractor.gif"",""img/Fire_Up_Distractor.gif"",""img/Fire_Up_Distractor.gif"",""img/Fire_Up_Distractor.gif"",""img/Fire_Up_Distractor.gif"",""img/Fire_Up_Distractor.gif"",""img/Fire_Up_Distractor.gif"",""img/Fire_Up_Distractor.gif"",""img/Fire_Up_Distractor.gif"",""img/Fire_Up_Distractor.gif""]","6","targetDown_distractorsUp"
"","","","","","html-keyboard-response","176","580111","0.0-14.0-0.0-0.81","5f2f31201649be31653dabc5","619531dcf66c91622fa1b861","61959691a36b74f687baa825","null","","null","","","","","main_T1_ITI","","","","",""
"","","","","","visual-search-circle","177","582255","0.0-14.0-0.0-1.81","5f2f31201649be31653dabc5","619531dcf66c91622fa1b861","61959691a36b74f687baa825","1136.300000000745","","s","true","[[533,111],[192,19],[0,315],[222,589],[551,463]]","false","5","main_T2_Trial","s","img/Fire_Down_Target.gif","[""img/Fire_Up_Distractor.gif"",""img/Fire_Up_Distractor.gif"",""img/Fire_Up_Distractor.gif"",""img/Fire_Up_Distractor.gif"",""img/Fire_Up_Distractor.gif"",""img/Fire_Up_Distractor.gif"",""img/Fire_Up_Distractor.gif"",""img/Fire_Up_Distractor.gif"",""img/Fire_Up_Distractor.gif"",""img/Fire_Up_Distractor.gif"",""img/Fire_Up_Distractor.gif"",""img/Fire_Up_Distractor.gif""]","5","targetDown_distractorsUp"
"","","","","","html-keyboard-response","178","582281","0.0-14.0-0.0-0.82","5f2f31201649be31653dabc5","619531dcf66c91622fa1b861","61959691a36b74f687baa825","null","","null","","","","","main_T1_ITI","","","","",""
"","","","","","visual-search-circle","179","584646","0.0-14.0-0.0-1.82","5f2f31201649be31653dabc5","619531dcf66c91622fa1b861","61959691a36b74f687baa825","1350.2000000029802","","s","true","[[247,4],[4,352],[352,595],[595,247]]","false","4","main_T2_Trial","s","img/Fire_Up_Target.gif","[""img/Fire_Down_Distractor.gif"",""img/Fire_Down_Distractor.gif"",""img/Fire_Down_Distractor.gif"",""img/Fire_Down_Distractor.gif"",""img/Fire_Down_Distractor.gif"",""img/Fire_Down_Distractor.gif"",""img/Fire_Down_Distractor.gif"",""img/Fire_Down_Distractor.gif"",""img/Fire_Down_Distractor.gif"",""img/Fire_Down_Distractor.gif"",""img/Fire_Down_Distractor.gif"",""img/Fire_Down_Distractor.gif""]","4","targetUp_distractorsDown"
"","","","","","html-keyboard-response","180","584648","0.0-14.0-0.0-0.83","5f2f31201649be31653dabc5","619531dcf66c91622fa1b861","61959691a36b74f687baa825","null","","null","","","","","main_T1_ITI","","","","",""
"","","","","","visual-search-circle","181","586677","0.0-14.0-0.0-1.83","5f2f31201649be31653dabc5","619531dcf66c91622fa1b861","61959691a36b74f687baa825","1009.6999999992549","","s","true","[[237,6],[31,165],[27,426],[228,591],[483,537],[599,304],[490,68]]","false","7","main_T2_Trial","s","img/Fire_Down_Target.gif","[""img/Fire_Up_Distractor.gif"",""img/Fire_Up_Distractor.gif"",""img/Fire_Up_Distractor.gif"",""img/Fire_Up_Distractor.gif"",""img/Fire_Up_Distractor.gif"",""img/Fire_Up_Distractor.gif"",""img/Fire_Up_Distractor.gif"",""img/Fire_Up_Distractor.gif"",""img/Fire_Up_Distractor.gif"",""img/Fire_Up_Distractor.gif"",""img/Fire_Up_Distractor.gif"",""img/Fire_Up_Distractor.gif""]","7","targetDown_distractorsUp"
"","","","","","html-keyboard-response","182","586679","0.0-14.0-0.0-0.84","5f2f31201649be31653dabc5","619531dcf66c91622fa1b861","61959691a36b74f687baa825","null","","null","","","","","main_T1_ITI","","","","",""
"","","","","","visual-search-circle","183","588598","0.0-14.0-0.0-1.84","5f2f31201649be31653dabc5","619531dcf66c91622fa1b861","61959691a36b74f687baa825","911.7000000029802","","s","true","[[1,273],[127,545],[426,571],[598,326],[472,54],[173,28]]","false","6","main_T2_Trial","s","img/Fire_Down_Target.gif","[""img/Fire_Up_Distractor.gif"",""img/Fire_Up_Distractor.gif"",""img/Fire_Up_Distractor.gif"",""img/Fire_Up_Distractor.gif"",""img/Fire_Up_Distractor.gif"",""img/Fire_Up_Distractor.gif"",""img/Fire_Up_Distractor.gif"",""img/Fire_Up_Distractor.gif"",""img/Fire_Up_Distractor.gif"",""img/Fire_Up_Distractor.gif"",""img/Fire_Up_Distractor.gif"",""img/Fire_Up_Distractor.gif""]","6","targetDown_distractorsUp"
"","","","","","html-keyboard-response","184","588599","0.0-14.0-0.0-0.85","5f2f31201649be31653dabc5","619531dcf66c91622fa1b861","61959691a36b74f687baa825","null","","null","","","","","main_T1_ITI","","","","",""
"","","","","","visual-search-circle","185","590542","0.0-14.0-0.0-1.85","5f2f31201649be31653dabc5","619531dcf66c91622fa1b861","61959691a36b74f687baa825","928.2999999970198","","s","true","[[1,268],[123,542],[422,574],[598,331],[476,57],[177,25]]","false","6","main_T2_Trial","s","img/Fire_Down_Target.gif","[""img/Fire_Up_Distractor.gif"",""img/Fire_Up_Distractor.gif"",""img/Fire_Up_Distractor.gif"",""img/Fire_Up_Distractor.gif"",""img/Fire_Up_Distractor.gif"",""img/Fire_Up_Distractor.gif"",""img/Fire_Up_Distractor.gif"",""img/Fire_Up_Distractor.gif"",""img/Fire_Up_Distractor.gif"",""img/Fire_Up_Distractor.gif"",""img/Fire_Up_Distractor.gif"",""img/Fire_Up_Distractor.gif""]","6","targetDown_distractorsUp"
"","","","","","html-keyboard-response","186","590545","0.0-14.0-0.0-0.86","5f2f31201649be31653dabc5","619531dcf66c91622fa1b861","61959691a36b74f687baa825","null","","null","","","","","main_T1_ITI","","","","",""
"","","","","","visual-search-circle","187","593247","0.0-14.0-0.0-1.86","5f2f31201649be31653dabc5","619531dcf66c91622fa1b861","61959691a36b74f687baa825","1695.800000000745","","s","true","[[73,496],[357,594],[583,397],[526,103],[242,5],[16,202]]","false","6","main_T2_Trial","s","img/Fire_Up_Target.gif","[""img/Fire_Down_Distractor.gif"",""img/Fire_Down_Distractor.gif"",""img/Fire_Down_Distractor.gif"",""img/Fire_Down_Distractor.gif"",""img/Fire_Down_Distractor.gif"",""img/Fire_Down_Distractor.gif"",""img/Fire_Down_Distractor.gif"",""img/Fire_Down_Distractor.gif"",""img/Fire_Down_Distractor.gif"",""img/Fire_Down_Distractor.gif"",""img/Fire_Down_Distractor.gif"",""img/Fire_Down_Distractor.gif""]","6","targetUp_distractorsDown"
"","","","","","html-keyboard-response","188","593249","0.0-14.0-0.0-0.87","5f2f31201649be31653dabc5","619531dcf66c91622fa1b861","61959691a36b74f687baa825","null","","null","","","","","main_T1_ITI","","","","",""
"","","","","","visual-search-circle","189","595494","0.0-14.0-0.0-1.87","5f2f31201649be31653dabc5","619531dcf66c91622fa1b861","61959691a36b74f687baa825","1236.9000000022352","","s","true","[[539,480],[545,127],[212,13],[0,294],[202,583]]","false","5","main_T2_Trial","s","img/Fire_Down_Target.gif","[""img/Fire_Up_Distractor.gif"",""img/Fire_Up_Distractor.gif"",""img/Fire_Up_Distractor.gif"",""img/Fire_Up_Distractor.gif"",""img/Fire_Up_Distractor.gif"",""img/Fire_Up_Distractor.gif"",""img/Fire_Up_Distractor.gif"",""img/Fire_Up_Distractor.gif"",""img/Fire_Up_Distractor.gif"",""img/Fire_Up_Distractor.gif"",""img/Fire_Up_Distractor.gif"",""img/Fire_Up_Distractor.gif""]","5","targetDown_distractorsUp"
"","","","","","html-keyboard-response","190","595496","0.0-14.0-0.0-0.88","5f2f31201649be31653dabc5","619531dcf66c91622fa1b861","61959691a36b74f687baa825","null","","null","","","","","main_T1_ITI","","","","",""
"","","","","","visual-search-circle","191","597614","0.0-14.0-0.0-1.88","5f2f31201649be31653dabc5","619531dcf66c91622fa1b861","61959691a36b74f687baa825","1107.6000000014901","","s","true","[[583,202],[357,5],[73,103],[16,397],[242,594],[526,496]]","false","6","main_T2_Trial","s","img/Fire_Up_Target.gif","[""img/Fire_Down_Distractor.gif"",""img/Fire_Down_Distractor.gif"",""img/Fire_Down_Distractor.gif"",""img/Fire_Down_Distractor.gif"",""img/Fire_Down_Distractor.gif"",""img/Fire_Down_Distractor.gif"",""img/Fire_Down_Distractor.gif"",""img/Fire_Down_Distractor.gif"",""img/Fire_Down_Distractor.gif"",""img/Fire_Down_Distractor.gif"",""img/Fire_Down_Distractor.gif"",""img/Fire_Down_Distractor.gif""]","6","targetUp_distractorsDown"
"","","","","","html-keyboard-response","192","597616","0.0-14.0-0.0-0.89","5f2f31201649be31653dabc5","619531dcf66c91622fa1b861","61959691a36b74f687baa825","null","","null","","","","","main_T1_ITI","","","","",""
"","","","","","visual-search-circle","193","599766","0.0-14.0-0.0-1.89","5f2f31201649be31653dabc5","619531dcf66c91622fa1b861","61959691a36b74f687baa825","1133.0999999977648","","s","true","[[387,13],[130,52],[0,278],[96,520],[345,596],[560,449],[578,189]]","false","7","main_T2_Trial","s","img/Fire_Up_Target.gif","[""img/Fire_Down_Distractor.gif"",""img/Fire_Down_Distractor.gif"",""img/Fire_Down_Distractor.gif"",""img/Fire_Down_Distractor.gif"",""img/Fire_Down_Distractor.gif"",""img/Fire_Down_Distractor.gif"",""img/Fire_Down_Distractor.gif"",""img/Fire_Down_Distractor.gif"",""img/Fire_Down_Distractor.gif"",""img/Fire_Down_Distractor.gif"",""img/Fire_Down_Distractor.gif"",""img/Fire_Down_Distractor.gif""]","7","targetUp_distractorsDown"
"","","","","","html-keyboard-response","194","599768","0.0-14.0-0.0-0.90","5f2f31201649be31653dabc5","619531dcf66c91622fa1b861","61959691a36b74f687baa825","null","","null","","","","","main_T1_ITI","","","","",""
"","","","","","visual-search-circle","195","601958","0.0-14.0-0.0-1.90","5f2f31201649be31653dabc5","619531dcf66c91622fa1b861","61959691a36b74f687baa825","1177","","d","true","[[51,132],[30,431],[279,599],[548,467],[569,168],[320,0]]","true","6","main_T2_Trial","d","img/Fire_Down_Target.gif","[""img/Fire_Up_Distractor.gif"",""img/Fire_Up_Distractor.gif"",""img/Fire_Up_Distractor.gif"",""img/Fire_Up_Distractor.gif"",""img/Fire_Up_Distractor.gif"",""img/Fire_Up_Distractor.gif"",""img/Fire_Up_Distractor.gif"",""img/Fire_Up_Distractor.gif"",""img/Fire_Up_Distractor.gif"",""img/Fire_Up_Distractor.gif"",""img/Fire_Up_Distractor.gif"",""img/Fire_Up_Distractor.gif""]","6","targetDown_distractorsUp"
"","","","","","html-keyboard-response","196","601960","0.0-14.0-0.0-0.91","5f2f31201649be31653dabc5","619531dcf66c91622fa1b861","61959691a36b74f687baa825","null","","null","","","","","main_T1_ITI","","","","",""
"","","","","","visual-search-circle","197","603870","0.0-14.0-0.0-1.91","5f2f31201649be31653dabc5","619531dcf66c91622fa1b861","61959691a36b74f687baa825","888.1000000014901","","d","true","[[574,177],[331,1],[57,123],[25,422],[268,598],[542,476]]","true","6","main_T2_Trial","d","img/Fire_Down_Target.gif","[""img/Fire_Up_Distractor.gif"",""img/Fire_Up_Distractor.gif"",""img/Fire_Up_Distractor.gif"",""img/Fire_Up_Distractor.gif"",""img/Fire_Up_Distractor.gif"",""img/Fire_Up_Distractor.gif"",""img/Fire_Up_Distractor.gif"",""img/Fire_Up_Distractor.gif"",""img/Fire_Up_Distractor.gif"",""img/Fire_Up_Distractor.gif"",""img/Fire_Up_Distractor.gif"",""img/Fire_Up_Distractor.gif""]","6","targetDown_distractorsUp"
"","","","","","html-keyboard-response","198","603872","0.0-14.0-0.0-0.92","5f2f31201649be31653dabc5","619531dcf66c91622fa1b861","61959691a36b74f687baa825","null","","null","","","","","main_T1_ITI","","","","",""
"","","","","","visual-search-circle","199","606765","0.0-14.0-0.0-1.92","5f2f31201649be31653dabc5","619531dcf66c91622fa1b861","61959691a36b74f687baa825","1887.199999999255","","d","true","[[593,362],[449,40],[99,77],[25,422],[331,598]]","true","5","main_T2_Trial","d","img/Fire_Up_Target.gif","[""img/Fire_Down_Distractor.gif"",""img/Fire_Down_Distractor.gif"",""img/Fire_Down_Distractor.gif"",""img/Fire_Down_Distractor.gif"",""img/Fire_Down_Distractor.gif"",""img/Fire_Down_Distractor.gif"",""img/Fire_Down_Distractor.gif"",""img/Fire_Down_Distractor.gif"",""img/Fire_Down_Distractor.gif"",""img/Fire_Down_Distractor.gif"",""img/Fire_Down_Distractor.gif"",""img/Fire_Down_Distractor.gif""]","5","targetUp_distractorsDown"
"","","","","","html-keyboard-response","200","606768","0.0-14.0-0.0-0.93","5f2f31201649be31653dabc5","619531dcf66c91622fa1b861","61959691a36b74f687baa825","null","","null","","","","","main_T1_ITI","","","","",""
"","","","","","visual-search-circle","201","608677","0.0-14.0-0.0-1.93","5f2f31201649be31653dabc5","619531dcf66c91622fa1b861","61959691a36b74f687baa825","905.0999999977648","","d","true","[[567,436],[551,136],[284,0],[32,163],[48,463],[315,599]]","true","6","main_T2_Trial","d","img/Fire_Down_Target.gif","[""img/Fire_Up_Distractor.gif"",""img/Fire_Up_Distractor.gif"",""img/Fire_Up_Distractor.gif"",""img/Fire_Up_Distractor.gif"",""img/Fire_Up_Distractor.gif"",""img/Fire_Up_Distractor.gif"",""img/Fire_Up_Distractor.gif"",""img/Fire_Up_Distractor.gif"",""img/Fire_Up_Distractor.gif"",""img/Fire_Up_Distractor.gif"",""img/Fire_Up_Distractor.gif"",""img/Fire_Up_Distractor.gif""]","6","targetDown_distractorsUp"
"","","","","","html-keyboard-response","202","608679","0.0-14.0-0.0-0.94","5f2f31201649be31653dabc5","619531dcf66c91622fa1b861","61959691a36b74f687baa825","null","","null","","","","","main_T1_ITI","","","","",""
"","","","","","visual-search-circle","203","610567","0.0-14.0-0.0-1.94","5f2f31201649be31653dabc5","619531dcf66c91622fa1b861","61959691a36b74f687baa825","879.5","","s","false","[[51,467],[467,548],[548,132],[132,51]]","true","4","main_T2_Trial","d","img/Fire_Up_Target.gif","[""img/Fire_Down_Distractor.gif"",""img/Fire_Down_Distractor.gif"",""img/Fire_Down_Distractor.gif"",""img/Fire_Down_Distractor.gif"",""img/Fire_Down_Distractor.gif"",""img/Fire_Down_Distractor.gif"",""img/Fire_Down_Distractor.gif"",""img/Fire_Down_Distractor.gif"",""img/Fire_Down_Distractor.gif"",""img/Fire_Down_Distractor.gif"",""img/Fire_Down_Distractor.gif"",""img/Fire_Down_Distractor.gif""]","4","targetUp_distractorsDown"
"","","","","","html-keyboard-response","204","610578","0.0-14.0-0.0-0.95","5f2f31201649be31653dabc5","619531dcf66c91622fa1b861","61959691a36b74f687baa825","null","","null","","","","","main_T1_ITI","","","","",""
"","","","","","visual-search-circle","205","612822","0.0-14.0-0.0-1.95","5f2f31201649be31653dabc5","619531dcf66c91622fa1b861","61959691a36b74f687baa825","1230.199999999255","","s","true","[[263,2],[23,182],[60,480],[336,597],[576,417],[539,119]]","false","6","main_T2_Trial","s","img/Fire_Down_Target.gif","[""img/Fire_Up_Distractor.gif"",""img/Fire_Up_Distractor.gif"",""img/Fire_Up_Distractor.gif"",""img/Fire_Up_Distractor.gif"",""img/Fire_Up_Distractor.gif"",""img/Fire_Up_Distractor.gif"",""img/Fire_Up_Distractor.gif"",""img/Fire_Up_Distractor.gif"",""img/Fire_Up_Distractor.gif"",""img/Fire_Up_Distractor.gif"",""img/Fire_Up_Distractor.gif"",""img/Fire_Up_Distractor.gif""]","6","targetDown_distractorsUp"
"","","","","","html-keyboard-response","206","612824","0.0-14.0-0.0-0.96","5f2f31201649be31653dabc5","619531dcf66c91622fa1b861","61959691a36b74f687baa825","null","","null","","","","","main_T1_ITI","","","","",""
"","","","","","visual-search-circle","207","614742","0.0-14.0-0.0-1.96","5f2f31201649be31653dabc5","619531dcf66c91622fa1b861","61959691a36b74f687baa825","899.0999999977648","","s","true","[[392,14],[99,77],[6,362],[207,585],[500,522],[593,237]]","false","6","main_T2_Trial","s","img/Fire_Up_Target.gif","[""img/Fire_Down_Distractor.gif"",""img/Fire_Down_Distractor.gif"",""img/Fire_Down_Distractor.gif"",""img/Fire_Down_Distractor.gif"",""img/Fire_Down_Distractor.gif"",""img/Fire_Down_Distractor.gif"",""img/Fire_Down_Distractor.gif"",""img/Fire_Down_Distractor.gif"",""img/Fire_Down_Distractor.gif"",""img/Fire_Down_Distractor.gif"",""img/Fire_Down_Distractor.gif"",""img/Fire_Down_Distractor.gif""]","6","targetUp_distractorsDown"
"","","","","","html-keyboard-response","208","614747","0.0-14.0-0.0-0.97","5f2f31201649be31653dabc5","619531dcf66c91622fa1b861","61959691a36b74f687baa825","null","","null","","","","","main_T1_ITI","","","","",""
"","","","","","visual-search-circle","209","616750","0.0-14.0-0.0-1.97","5f2f31201649be31653dabc5","619531dcf66c91622fa1b861","61959691a36b74f687baa825","986.0999999977648","","s","true","[[512,87],[266,1],[45,140],[16,399],[200,583],[459,554],[598,333]]","false","7","main_T2_Trial","s","img/Fire_Down_Target.gif","[""img/Fire_Up_Distractor.gif"",""img/Fire_Up_Distractor.gif"",""img/Fire_Up_Distractor.gif"",""img/Fire_Up_Distractor.gif"",""img/Fire_Up_Distractor.gif"",""img/Fire_Up_Distractor.gif"",""img/Fire_Up_Distractor.gif"",""img/Fire_Up_Distractor.gif"",""img/Fire_Up_Distractor.gif"",""img/Fire_Up_Distractor.gif"",""img/Fire_Up_Distractor.gif"",""img/Fire_Up_Distractor.gif""]","7","targetDown_distractorsUp"
"","","","","","html-keyboard-response","210","616752","0.0-14.0-0.0-0.98","5f2f31201649be31653dabc5","619531dcf66c91622fa1b861","61959691a36b74f687baa825","null","","null","","","","","main_T1_ITI","","","","",""
"","","","","","visual-search-circle","211","619214","0.0-14.0-0.0-1.98","5f2f31201649be31653dabc5","619531dcf66c91622fa1b861","61959691a36b74f687baa825","1454.300000000745","","d","true","[[382,11],[51,132],[63,484],[402,581],[599,289]]","true","5","main_T2_Trial","d","img/Fire_Up_Target.gif","[""img/Fire_Down_Distractor.gif"",""img/Fire_Down_Distractor.gif"",""img/Fire_Down_Distractor.gif"",""img/Fire_Down_Distractor.gif"",""img/Fire_Down_Distractor.gif"",""img/Fire_Down_Distractor.gif"",""img/Fire_Down_Distractor.gif"",""img/Fire_Down_Distractor.gif"",""img/Fire_Down_Distractor.gif"",""img/Fire_Down_Distractor.gif"",""img/Fire_Down_Distractor.gif"",""img/Fire_Down_Distractor.gif""]","5","targetUp_distractorsDown"
"","","","","","html-keyboard-response","212","620686","0.0-14.0-0.0-0.99","5f2f31201649be31653dabc5","619531dcf66c91622fa1b861","61959691a36b74f687baa825","1472.1000000014901","Wow! You've completed 100 out of 160 trials! </p> <p>  </p><p> Take a quick break, then press any key when you're ready to continue.","d","","","","","main_T1_ITI","","","","",""
"","","","","","visual-search-circle","213","623326","0.0-14.0-0.0-1.99","5f2f31201649be31653dabc5","619531dcf66c91622fa1b861","61959691a36b74f687baa825","1628.699999999255","","s","true","[[197,581],[581,402],[402,18],[18,197]]","false","4","main_T2_Trial","s","img/Fire_Up_Target.gif","[""img/Fire_Down_Distractor.gif"",""img/Fire_Down_Distractor.gif"",""img/Fire_Down_Distractor.gif"",""img/Fire_Down_Distractor.gif"",""img/Fire_Down_Distractor.gif"",""img/Fire_Down_Distractor.gif"",""img/Fire_Down_Distractor.gif"",""img/Fire_Down_Distractor.gif"",""img/Fire_Down_Distractor.gif"",""img/Fire_Down_Distractor.gif"",""img/Fire_Down_Distractor.gif"",""img/Fire_Down_Distractor.gif""]","4","targetUp_distractorsDown"
"","","","","","html-keyboard-response","214","623328","0.0-14.0-0.0-0.100","5f2f31201649be31653dabc5","619531dcf66c91622fa1b861","61959691a36b74f687baa825","null","","null","","","","","main_T1_ITI","","","","",""
"","","","","","visual-search-circle","215","625174","0.0-14.0-0.0-1.100","5f2f31201649be31653dabc5","619531dcf66c91622fa1b861","61959691a36b74f687baa825","837.6000000014901","","s","true","[[554,458],[592,232],[458,45],[232,7],[45,141],[7,367],[141,554],[367,592]]","false","8","main_T2_Trial","s","img/Fire_Down_Target.gif","[""img/Fire_Up_Distractor.gif"",""img/Fire_Up_Distractor.gif"",""img/Fire_Up_Distractor.gif"",""img/Fire_Up_Distractor.gif"",""img/Fire_Up_Distractor.gif"",""img/Fire_Up_Distractor.gif"",""img/Fire_Up_Distractor.gif"",""img/Fire_Up_Distractor.gif"",""img/Fire_Up_Distractor.gif"",""img/Fire_Up_Distractor.gif"",""img/Fire_Up_Distractor.gif"",""img/Fire_Up_Distractor.gif""]","8","targetDown_distractorsUp"
"","","","","","html-keyboard-response","216","625175","0.0-14.0-0.0-0.101","5f2f31201649be31653dabc5","619531dcf66c91622fa1b861","61959691a36b74f687baa825","null","","null","","","","","main_T1_ITI","","","","",""
