"success","timeout","failed_images","failed_audio","failed_video","trial_type","trial_index","time_elapsed","internal_node_id","subject_id","study_id","session_id","rt","stimulus","response","correct","locations","target_present","set_size","task","correct_response","target","foilCM","setSizeCM","searchCondition"
"true","false","[]","[]","[]","preload","0","6148","0.0-0.0","5f37dc3b4e588b26d099ceac","619531dcf66c91622fa1b861","619595f6f4924c7d4f95951b","","","","","","","","","","","","",""
"true","","","","","fullscreen","1","41441","0.0-1.0","5f37dc3b4e588b26d099ceac","619531dcf66c91622fa1b861","619595f6f4924c7d4f95951b","","","","","","","","","","","","",""
"","","","","","html-keyboard-response","2","47489","0.0-2.0","5f37dc3b4e588b26d099ceac","619531dcf66c91622fa1b861","619595f6f4924c7d4f95951b","6048","What a beautiful Wednesday to do some awesome science! </p> <p>  </p><p> </p>
    By completing this survey or questionnaire, you are consenting to be in this research study. </p>
    Your participation is voluntary and you can stop at any time.
    <p> [Press any key to continue.] </p>
    
    "," ","","","","","","","","","",""
"","","","","","video-keyboard-response","3","58971","0.0-3.0","5f37dc3b4e588b26d099ceac","619531dcf66c91622fa1b861","619595f6f4924c7d4f95951b","11475","[""video/TaskInstructions.mp4""]"," ","","","","","","","","","",""
"","","","","","html-keyboard-response","4","61515","0.0-4.0","5f37dc3b4e588b26d099ceac","619531dcf66c91622fa1b861","619595f6f4924c7d4f95951b","2544","
    <p>First, we're going to do a few practice trials to make sure you understand the task. You will recieve feedback on each trial. </p>
    <p>[Press any key to begin the familiarization phase.]</p>
    "," ","","","","","","","","","",""
"","","","","","visual-search-circle","5","65084","0.0-5.0-0.0","5f37dc3b4e588b26d099ceac","619531dcf66c91622fa1b861","619595f6f4924c7d4f95951b","2503","","d","true","[[402,18],[18,197],[197,581],[581,402]]","true","4","training","d","","","",""
"","","","","","html-keyboard-response","6","67611","0.0-6.0","5f37dc3b4e588b26d099ceac","619531dcf66c91622fa1b861","619595f6f4924c7d4f95951b","2527"," <div style='float: center; '><img src='img/feedbackRight.png'></img> </div> "," ","","","","","","","","","",""
"","","","","","visual-search-circle","7","70003","0.0-7.0-0.0","5f37dc3b4e588b26d099ceac","619531dcf66c91622fa1b861","619595f6f4924c7d4f95951b","1382","","s","true","[[581,402],[402,18],[18,197],[197,581]]","false","4","training","s","","","",""
"","","","","","html-keyboard-response","8","70707","0.0-8.0","5f37dc3b4e588b26d099ceac","619531dcf66c91622fa1b861","619595f6f4924c7d4f95951b","704"," <div style='float: center; '><img src='img/feedbackRight.png'></img> </div> "," ","","","","","","","","","",""
"","","","","","visual-search-circle","9","75445","0.0-9.0-0.0","5f37dc3b4e588b26d099ceac","619531dcf66c91622fa1b861","619595f6f4924c7d4f95951b","3728","","d","false","[[45,141],[35,440],[289,599],[554,458],[564,159],[310,0]]","false","6","training","s","","","",""
"","","","","","html-keyboard-response","10","77885","0.0-10.0","5f37dc3b4e588b26d099ceac","619531dcf66c91622fa1b861","619595f6f4924c7d4f95951b","2440"," <div style='float: center;'><img src='img/feedbackWrong.png'></img> </div> "," ","","","","","","","","","",""
"","","","","","visual-search-circle","11","82109","0.0-11.0-0.0","5f37dc3b4e588b26d099ceac","619531dcf66c91622fa1b861","619595f6f4924c7d4f95951b","3216","","d","true","[[539,480],[597,258],[480,60],[258,2],[60,119],[2,341],[119,539],[341,597]]","true","8","training","d","","","",""
"","","","","","html-keyboard-response","12","82670","0.0-12.0","5f37dc3b4e588b26d099ceac","619531dcf66c91622fa1b861","619595f6f4924c7d4f95951b","560"," <div style='float: center; '><img src='img/feedbackRight.png'></img> </div> "," ","","","","","","","","","",""
"","","","","","video-keyboard-response","13","84205","0.0-13.0","5f37dc3b4e588b26d099ceac","619531dcf66c91622fa1b861","619595f6f4924c7d4f95951b","1534","[""video/endTraining.mp4""]"," ","","","","","","","","","",""
"","","","","","html-keyboard-response","14","84206","0.0-14.0-0.0-0.0","5f37dc3b4e588b26d099ceac","619531dcf66c91622fa1b861","619595f6f4924c7d4f95951b","null","","null","","","","","main_T1_ITI","","","","",""
"","","","","","visual-search-circle","15","88311","0.0-14.0-0.0-1.0","5f37dc3b4e588b26d099ceac","619531dcf66c91622fa1b861","619595f6f4924c7d4f95951b","3100","","d","true","[[504,519],[599,276],[468,51],[210,13],[20,191],[40,450],[256,596]]","true","7","main_T2_Trial","d","img/Fire_Down_Target.gif","[""img/Fire_Up_Distractor.gif"",""img/Fire_Up_Distractor.gif"",""img/Fire_Up_Distractor.gif"",""img/Fire_Up_Distractor.gif"",""img/Fire_Up_Distractor.gif"",""img/Fire_Up_Distractor.gif"",""img/Fire_Up_Distractor.gif"",""img/Fire_Up_Distractor.gif"",""img/Fire_Up_Distractor.gif"",""img/Fire_Up_Distractor.gif"",""img/Fire_Up_Distractor.gif"",""img/Fire_Up_Distractor.gif""]","7","targetDown_distractorsUp"
"","","","","","html-keyboard-response","16","88311","0.0-14.0-0.0-0.1","5f37dc3b4e588b26d099ceac","619531dcf66c91622fa1b861","619595f6f4924c7d4f95951b","null","","null","","","","","main_T1_ITI","","","","",""
"","","","","","visual-search-circle","17","94344","0.0-14.0-0.0-1.1","5f37dc3b4e588b26d099ceac","619531dcf66c91622fa1b861","619595f6f4924c7d4f95951b","5019","","d","true","[[247,4],[36,156],[23,416],[218,588],[475,543],[599,314],[498,75]]","true","7","main_T2_Trial","d","img/Fire_Up_Target.gif","[""img/Fire_Down_Distractor.gif"",""img/Fire_Down_Distractor.gif"",""img/Fire_Down_Distractor.gif"",""img/Fire_Down_Distractor.gif"",""img/Fire_Down_Distractor.gif"",""img/Fire_Down_Distractor.gif"",""img/Fire_Down_Distractor.gif"",""img/Fire_Down_Distractor.gif"",""img/Fire_Down_Distractor.gif"",""img/Fire_Down_Distractor.gif"",""img/Fire_Down_Distractor.gif"",""img/Fire_Down_Distractor.gif""]","7","targetUp_distractorsDown"
"","","","","","html-keyboard-response","18","94344","0.0-14.0-0.0-0.2","5f37dc3b4e588b26d099ceac","619531dcf66c91622fa1b861","619595f6f4924c7d4f95951b","null","","null","","","","","main_T1_ITI","","","","",""
"","","","","","visual-search-circle","19","100871","0.0-14.0-0.0-1.2","5f37dc3b4e588b26d099ceac","619531dcf66c91622fa1b861","619595f6f4924c7d4f95951b","5523","","d","true","[[529,492],[598,273],[492,70],[273,1],[70,107],[1,326],[107,529],[326,598]]","true","8","main_T2_Trial","d","img/Fire_Up_Target.gif","[""img/Fire_Down_Distractor.gif"",""img/Fire_Down_Distractor.gif"",""img/Fire_Down_Distractor.gif"",""img/Fire_Down_Distractor.gif"",""img/Fire_Down_Distractor.gif"",""img/Fire_Down_Distractor.gif"",""img/Fire_Down_Distractor.gif"",""img/Fire_Down_Distractor.gif"",""img/Fire_Down_Distractor.gif"",""img/Fire_Down_Distractor.gif"",""img/Fire_Down_Distractor.gif"",""img/Fire_Down_Distractor.gif""]","8","targetUp_distractorsDown"
"","","","","","html-keyboard-response","20","100871","0.0-14.0-0.0-0.3","5f37dc3b4e588b26d099ceac","619531dcf66c91622fa1b861","619595f6f4924c7d4f95951b","null","","null","","","","","main_T1_ITI","","","","",""
"","","","","","visual-search-circle","21","103977","0.0-14.0-0.0-1.3","5f37dc3b4e588b26d099ceac","619531dcf66c91622fa1b861","619595f6f4924c7d4f95951b","2101","","s","true","[[91,515],[515,508],[508,84],[84,91]]","false","4","main_T2_Trial","s","img/Fire_Up_Target.gif","[""img/Fire_Down_Distractor.gif"",""img/Fire_Down_Distractor.gif"",""img/Fire_Down_Distractor.gif"",""img/Fire_Down_Distractor.gif"",""img/Fire_Down_Distractor.gif"",""img/Fire_Down_Distractor.gif"",""img/Fire_Down_Distractor.gif"",""img/Fire_Down_Distractor.gif"",""img/Fire_Down_Distractor.gif"",""img/Fire_Down_Distractor.gif"",""img/Fire_Down_Distractor.gif"",""img/Fire_Down_Distractor.gif""]","4","targetUp_distractorsDown"
"","","","","","html-keyboard-response","22","103977","0.0-14.0-0.0-0.4","5f37dc3b4e588b26d099ceac","619531dcf66c91622fa1b861","619595f6f4924c7d4f95951b","null","","null","","","","","main_T1_ITI","","","","",""
"","","","","","visual-search-circle","23","110570","0.0-14.0-0.0-1.4","5f37dc3b4e588b26d099ceac","619531dcf66c91622fa1b861","619595f6f4924c7d4f95951b","5578","","s","true","[[545,127],[273,1],[28,173],[54,472],[326,598],[571,426]]","false","6","main_T2_Trial","s","img/Fire_Up_Target.gif","[""img/Fire_Down_Distractor.gif"",""img/Fire_Down_Distractor.gif"",""img/Fire_Down_Distractor.gif"",""img/Fire_Down_Distractor.gif"",""img/Fire_Down_Distractor.gif"",""img/Fire_Down_Distractor.gif"",""img/Fire_Down_Distractor.gif"",""img/Fire_Down_Distractor.gif"",""img/Fire_Down_Distractor.gif"",""img/Fire_Down_Distractor.gif"",""img/Fire_Down_Distractor.gif"",""img/Fire_Down_Distractor.gif""]","6","targetUp_distractorsDown"
"","","","","","html-keyboard-response","24","110570","0.0-14.0-0.0-0.5","5f37dc3b4e588b26d099ceac","619531dcf66c91622fa1b861","619595f6f4924c7d4f95951b","null","","null","","","","","main_T1_ITI","","","","",""
"","","","","","visual-search-circle","25","115611","0.0-14.0-0.0-1.5","5f37dc3b4e588b26d099ceac","619531dcf66c91622fa1b861","619595f6f4924c7d4f95951b","4039","","s","true","[[564,159],[387,13],[159,35],[13,212],[35,440],[212,586],[440,564],[586,387]]","false","8","main_T2_Trial","s","img/Fire_Down_Target.gif","[""img/Fire_Up_Distractor.gif"",""img/Fire_Up_Distractor.gif"",""img/Fire_Up_Distractor.gif"",""img/Fire_Up_Distractor.gif"",""img/Fire_Up_Distractor.gif"",""img/Fire_Up_Distractor.gif"",""img/Fire_Up_Distractor.gif"",""img/Fire_Up_Distractor.gif"",""img/Fire_Up_Distractor.gif"",""img/Fire_Up_Distractor.gif"",""img/Fire_Up_Distractor.gif"",""img/Fire_Up_Distractor.gif""]","8","targetDown_distractorsUp"
"","","","","","html-keyboard-response","26","115612","0.0-14.0-0.0-0.6","5f37dc3b4e588b26d099ceac","619531dcf66c91622fa1b861","619595f6f4924c7d4f95951b","null","","null","","","","","main_T1_ITI","","","","",""
"","","","","","visual-search-circle","27","121636","0.0-14.0-0.0-1.6","5f37dc3b4e588b26d099ceac","619531dcf66c91622fa1b861","619595f6f4924c7d4f95951b","5014","","s","true","[[60,119],[9,374],[177,573],[437,566],[594,358],[529,106],[291,0]]","false","7","main_T2_Trial","s","img/Fire_Down_Target.gif","[""img/Fire_Up_Distractor.gif"",""img/Fire_Up_Distractor.gif"",""img/Fire_Up_Distractor.gif"",""img/Fire_Up_Distractor.gif"",""img/Fire_Up_Distractor.gif"",""img/Fire_Up_Distractor.gif"",""img/Fire_Up_Distractor.gif"",""img/Fire_Up_Distractor.gif"",""img/Fire_Up_Distractor.gif"",""img/Fire_Up_Distractor.gif"",""img/Fire_Up_Distractor.gif"",""img/Fire_Up_Distractor.gif""]","7","targetDown_distractorsUp"
"","","","","","html-keyboard-response","28","121636","0.0-14.0-0.0-0.7","5f37dc3b4e588b26d099ceac","619531dcf66c91622fa1b861","619595f6f4924c7d4f95951b","null","","null","","","","","main_T1_ITI","","","","",""
"","","","","","visual-search-circle","29","125563","0.0-14.0-0.0-1.7","5f37dc3b4e588b26d099ceac","619531dcf66c91622fa1b861","619595f6f4924c7d4f95951b","2917","","d","true","[[168,569],[569,431],[431,30],[30,168]]","true","4","main_T2_Trial","d","img/Fire_Up_Target.gif","[""img/Fire_Down_Distractor.gif"",""img/Fire_Down_Distractor.gif"",""img/Fire_Down_Distractor.gif"",""img/Fire_Down_Distractor.gif"",""img/Fire_Down_Distractor.gif"",""img/Fire_Down_Distractor.gif"",""img/Fire_Down_Distractor.gif"",""img/Fire_Down_Distractor.gif"",""img/Fire_Down_Distractor.gif"",""img/Fire_Down_Distractor.gif"",""img/Fire_Down_Distractor.gif"",""img/Fire_Down_Distractor.gif""]","4","targetUp_distractorsDown"
"","","","","","html-keyboard-response","30","125563","0.0-14.0-0.0-0.8","5f37dc3b4e588b26d099ceac","619531dcf66c91622fa1b861","619595f6f4924c7d4f95951b","null","","null","","","","","main_T1_ITI","","","","",""
"","","","","","visual-search-circle","31","136126","0.0-14.0-0.0-1.8","5f37dc3b4e588b26d099ceac","619531dcf66c91622fa1b861","619595f6f4924c7d4f95951b","9557","","s","false","[[163,32],[0,284],[136,551],[436,567],[599,315],[463,48]]","true","6","main_T2_Trial","d","img/Fire_Up_Target.gif","[""img/Fire_Down_Distractor.gif"",""img/Fire_Down_Distractor.gif"",""img/Fire_Down_Distractor.gif"",""img/Fire_Down_Distractor.gif"",""img/Fire_Down_Distractor.gif"",""img/Fire_Down_Distractor.gif"",""img/Fire_Down_Distractor.gif"",""img/Fire_Down_Distractor.gif"",""img/Fire_Down_Distractor.gif"",""img/Fire_Down_Distractor.gif"",""img/Fire_Down_Distractor.gif"",""img/Fire_Down_Distractor.gif""]","6","targetUp_distractorsDown"
"","","","","","html-keyboard-response","32","136126","0.0-14.0-0.0-0.9","5f37dc3b4e588b26d099ceac","619531dcf66c91622fa1b861","619595f6f4924c7d4f95951b","null","","null","","","","","main_T1_ITI","","","","",""
"","","","","","visual-search-circle","33","140533","0.0-14.0-0.0-1.9","5f37dc3b4e588b26d099ceac","619531dcf66c91622fa1b861","619595f6f4924c7d4f95951b","3394","","s","true","[[168,569],[569,431],[431,30],[30,168]]","false","4","main_T2_Trial","s","img/Fire_Down_Target.gif","[""img/Fire_Up_Distractor.gif"",""img/Fire_Up_Distractor.gif"",""img/Fire_Up_Distractor.gif"",""img/Fire_Up_Distractor.gif"",""img/Fire_Up_Distractor.gif"",""img/Fire_Up_Distractor.gif"",""img/Fire_Up_Distractor.gif"",""img/Fire_Up_Distractor.gif"",""img/Fire_Up_Distractor.gif"",""img/Fire_Up_Distractor.gif"",""img/Fire_Up_Distractor.gif"",""img/Fire_Up_Distractor.gif""]","4","targetDown_distractorsUp"
"","","","","","html-keyboard-response","34","140534","0.0-14.0-0.0-0.10","5f37dc3b4e588b26d099ceac","619531dcf66c91622fa1b861","619595f6f4924c7d4f95951b","null","","null","","","","","main_T1_ITI","","","","",""
"","","","","","visual-search-circle","35","142501","0.0-14.0-0.0-1.10","5f37dc3b4e588b26d099ceac","619531dcf66c91622fa1b861","619595f6f4924c7d4f95951b","966","","d","true","[[247,4],[36,156],[23,416],[218,588],[475,543],[599,314],[498,75]]","true","7","main_T2_Trial","d","img/Fire_Down_Target.gif","[""img/Fire_Up_Distractor.gif"",""img/Fire_Up_Distractor.gif"",""img/Fire_Up_Distractor.gif"",""img/Fire_Up_Distractor.gif"",""img/Fire_Up_Distractor.gif"",""img/Fire_Up_Distractor.gif"",""img/Fire_Up_Distractor.gif"",""img/Fire_Up_Distractor.gif"",""img/Fire_Up_Distractor.gif"",""img/Fire_Up_Distractor.gif"",""img/Fire_Up_Distractor.gif"",""img/Fire_Up_Distractor.gif""]","7","targetDown_distractorsUp"
"","","","","","html-keyboard-response","36","142502","0.0-14.0-0.0-0.11","5f37dc3b4e588b26d099ceac","619531dcf66c91622fa1b861","619595f6f4924c7d4f95951b","null","","null","","","","","main_T1_ITI","","","","",""
"","","","","","visual-search-circle","37","145205","0.0-14.0-0.0-1.11","5f37dc3b4e588b26d099ceac","619531dcf66c91622fa1b861","619595f6f4924c7d4f95951b","1702","","d","true","[[367,592],[586,387],[519,95],[232,7],[13,212],[80,504]]","true","6","main_T2_Trial","d","img/Fire_Down_Target.gif","[""img/Fire_Up_Distractor.gif"",""img/Fire_Up_Distractor.gif"",""img/Fire_Up_Distractor.gif"",""img/Fire_Up_Distractor.gif"",""img/Fire_Up_Distractor.gif"",""img/Fire_Up_Distractor.gif"",""img/Fire_Up_Distractor.gif"",""img/Fire_Up_Distractor.gif"",""img/Fire_Up_Distractor.gif"",""img/Fire_Up_Distractor.gif"",""img/Fire_Up_Distractor.gif"",""img/Fire_Up_Distractor.gif""]","6","targetDown_distractorsUp"
"","","","","","html-keyboard-response","38","145205","0.0-14.0-0.0-0.12","5f37dc3b4e588b26d099ceac","619531dcf66c91622fa1b861","619595f6f4924c7d4f95951b","null","","null","","","","","main_T1_ITI","","","","",""
"","","","","","visual-search-circle","39","149247","0.0-14.0-0.0-1.12","5f37dc3b4e588b26d099ceac","619531dcf66c91622fa1b861","619595f6f4924c7d4f95951b","3040","","s","true","[[372,8],[45,141],[70,492],[412,578],[599,279]]","false","5","main_T2_Trial","s","img/Fire_Down_Target.gif","[""img/Fire_Up_Distractor.gif"",""img/Fire_Up_Distractor.gif"",""img/Fire_Up_Distractor.gif"",""img/Fire_Up_Distractor.gif"",""img/Fire_Up_Distractor.gif"",""img/Fire_Up_Distractor.gif"",""img/Fire_Up_Distractor.gif"",""img/Fire_Up_Distractor.gif"",""img/Fire_Up_Distractor.gif"",""img/Fire_Up_Distractor.gif"",""img/Fire_Up_Distractor.gif"",""img/Fire_Up_Distractor.gif""]","5","targetDown_distractorsUp"
"","","","","","html-keyboard-response","40","149247","0.0-14.0-0.0-0.13","5f37dc3b4e588b26d099ceac","619531dcf66c91622fa1b861","619595f6f4924c7d4f95951b","null","","null","","","","","main_T1_ITI","","","","",""
"","","","","","visual-search-circle","41","155311","0.0-14.0-0.0-1.13","5f37dc3b4e588b26d099ceac","619531dcf66c91622fa1b861","619595f6f4924c7d4f95951b","5059","","s","true","[[594,242],[336,2],[28,173],[95,519],[445,562]]","false","5","main_T2_Trial","s","img/Fire_Up_Target.gif","[""img/Fire_Down_Distractor.gif"",""img/Fire_Down_Distractor.gif"",""img/Fire_Down_Distractor.gif"",""img/Fire_Down_Distractor.gif"",""img/Fire_Down_Distractor.gif"",""img/Fire_Down_Distractor.gif"",""img/Fire_Down_Distractor.gif"",""img/Fire_Down_Distractor.gif"",""img/Fire_Down_Distractor.gif"",""img/Fire_Down_Distractor.gif"",""img/Fire_Down_Distractor.gif"",""img/Fire_Down_Distractor.gif""]","5","targetUp_distractorsDown"
"","","","","","html-keyboard-response","42","155311","0.0-14.0-0.0-0.14","5f37dc3b4e588b26d099ceac","619531dcf66c91622fa1b861","619595f6f4924c7d4f95951b","null","","null","","","","","main_T1_ITI","","","","",""
"","","","","","visual-search-circle","43","161855","0.0-14.0-0.0-1.14","5f37dc3b4e588b26d099ceac","619531dcf66c91622fa1b861","619595f6f4924c7d4f95951b","5543","","d","true","[[11,217],[132,548],[484,536],[581,197],[289,0]]","true","5","main_T2_Trial","d","img/Fire_Up_Target.gif","[""img/Fire_Down_Distractor.gif"",""img/Fire_Down_Distractor.gif"",""img/Fire_Down_Distractor.gif"",""img/Fire_Down_Distractor.gif"",""img/Fire_Down_Distractor.gif"",""img/Fire_Down_Distractor.gif"",""img/Fire_Down_Distractor.gif"",""img/Fire_Down_Distractor.gif"",""img/Fire_Down_Distractor.gif"",""img/Fire_Down_Distractor.gif"",""img/Fire_Down_Distractor.gif"",""img/Fire_Down_Distractor.gif""]","5","targetUp_distractorsDown"
"","","","","","html-keyboard-response","44","161856","0.0-14.0-0.0-0.15","5f37dc3b4e588b26d099ceac","619531dcf66c91622fa1b861","619595f6f4924c7d4f95951b","null","","null","","","","","main_T1_ITI","","","","",""
"","","","","","visual-search-circle","45","164546","0.0-14.0-0.0-1.15","5f37dc3b4e588b26d099ceac","619531dcf66c91622fa1b861","619595f6f4924c7d4f95951b","1688","","s","true","[[377,589],[599,315],[407,19],[66,111],[48,463]]","false","5","main_T2_Trial","s","img/Fire_Down_Target.gif","[""img/Fire_Up_Distractor.gif"",""img/Fire_Up_Distractor.gif"",""img/Fire_Up_Distractor.gif"",""img/Fire_Up_Distractor.gif"",""img/Fire_Up_Distractor.gif"",""img/Fire_Up_Distractor.gif"",""img/Fire_Up_Distractor.gif"",""img/Fire_Up_Distractor.gif"",""img/Fire_Up_Distractor.gif"",""img/Fire_Up_Distractor.gif"",""img/Fire_Up_Distractor.gif"",""img/Fire_Up_Distractor.gif""]","5","targetDown_distractorsUp"
"","","","","","html-keyboard-response","46","164546","0.0-14.0-0.0-0.16","5f37dc3b4e588b26d099ceac","619531dcf66c91622fa1b861","619595f6f4924c7d4f95951b","null","","null","","","","","main_T1_ITI","","","","",""
"","","","","","visual-search-circle","47","168250","0.0-14.0-0.0-1.16","5f37dc3b4e588b26d099ceac","619531dcf66c91622fa1b861","619595f6f4924c7d4f95951b","2699","","d","true","[[19,407],[209,586],[467,549],[598,324],[505,81],[257,3],[41,148]]","true","7","main_T2_Trial","d","img/Fire_Down_Target.gif","[""img/Fire_Up_Distractor.gif"",""img/Fire_Up_Distractor.gif"",""img/Fire_Up_Distractor.gif"",""img/Fire_Up_Distractor.gif"",""img/Fire_Up_Distractor.gif"",""img/Fire_Up_Distractor.gif"",""img/Fire_Up_Distractor.gif"",""img/Fire_Up_Distractor.gif"",""img/Fire_Up_Distractor.gif"",""img/Fire_Up_Distractor.gif"",""img/Fire_Up_Distractor.gif"",""img/Fire_Up_Distractor.gif""]","7","targetDown_distractorsUp"
"","","","","","html-keyboard-response","48","168250","0.0-14.0-0.0-0.17","5f37dc3b4e588b26d099ceac","619531dcf66c91622fa1b861","619595f6f4924c7d4f95951b","null","","null","","","","","main_T1_ITI","","","","",""
"","","","","","visual-search-circle","49","171009","0.0-14.0-0.0-1.17","5f37dc3b4e588b26d099ceac","619531dcf66c91622fa1b861","619595f6f4924c7d4f95951b","1750","","d","true","[[149,559],[377,589],[559,450],[589,222],[449,40],[222,10],[40,150],[10,377]]","true","8","main_T2_Trial","d","img/Fire_Up_Target.gif","[""img/Fire_Down_Distractor.gif"",""img/Fire_Down_Distractor.gif"",""img/Fire_Down_Distractor.gif"",""img/Fire_Down_Distractor.gif"",""img/Fire_Down_Distractor.gif"",""img/Fire_Down_Distractor.gif"",""img/Fire_Down_Distractor.gif"",""img/Fire_Down_Distractor.gif"",""img/Fire_Down_Distractor.gif"",""img/Fire_Down_Distractor.gif"",""img/Fire_Down_Distractor.gif"",""img/Fire_Down_Distractor.gif""]","8","targetUp_distractorsDown"
"","","","","","html-keyboard-response","50","171010","0.0-14.0-0.0-0.18","5f37dc3b4e588b26d099ceac","619531dcf66c91622fa1b861","619595f6f4924c7d4f95951b","null","","null","","","","","main_T1_ITI","","","","",""
"","","","","","visual-search-circle","51","175377","0.0-14.0-0.0-1.18","5f37dc3b4e588b26d099ceac","619531dcf66c91622fa1b861","619595f6f4924c7d4f95951b","3360","","d","true","[[21,412],[412,578],[578,187],[187,21]]","true","4","main_T2_Trial","d","img/Fire_Up_Target.gif","[""img/Fire_Down_Distractor.gif"",""img/Fire_Down_Distractor.gif"",""img/Fire_Down_Distractor.gif"",""img/Fire_Down_Distractor.gif"",""img/Fire_Down_Distractor.gif"",""img/Fire_Down_Distractor.gif"",""img/Fire_Down_Distractor.gif"",""img/Fire_Down_Distractor.gif"",""img/Fire_Down_Distractor.gif"",""img/Fire_Down_Distractor.gif"",""img/Fire_Down_Distractor.gif"",""img/Fire_Down_Distractor.gif""]","4","targetUp_distractorsDown"
"","","","","","html-keyboard-response","52","177177","0.0-14.0-0.0-0.19","5f37dc3b4e588b26d099ceac","619531dcf66c91622fa1b861","619595f6f4924c7d4f95951b","1800","Wow! You've completed 20 out of 160 trials! </p> <p>  </p><p> Take a quick break, then press any key when you're ready to continue."," ","","","","","main_T1_ITI","","","","",""
"","","","","","visual-search-circle","53","181899","0.0-14.0-0.0-1.19","5f37dc3b4e588b26d099ceac","619531dcf66c91622fa1b861","619595f6f4924c7d4f95951b","3715","","s","true","[[397,583],[582,400],[554,141],[335,2],[88,86],[1,332],[139,553]]","false","7","main_T2_Trial","s","img/Fire_Down_Target.gif","[""img/Fire_Up_Distractor.gif"",""img/Fire_Up_Distractor.gif"",""img/Fire_Up_Distractor.gif"",""img/Fire_Up_Distractor.gif"",""img/Fire_Up_Distractor.gif"",""img/Fire_Up_Distractor.gif"",""img/Fire_Up_Distractor.gif"",""img/Fire_Up_Distractor.gif"",""img/Fire_Up_Distractor.gif"",""img/Fire_Up_Distractor.gif"",""img/Fire_Up_Distractor.gif"",""img/Fire_Up_Distractor.gif""]","7","targetDown_distractorsUp"
"","","","","","html-keyboard-response","54","181899","0.0-14.0-0.0-0.20","5f37dc3b4e588b26d099ceac","619531dcf66c91622fa1b861","619595f6f4924c7d4f95951b","null","","null","","","","","main_T1_ITI","","","","",""
"","","","","","visual-search-circle","55","187235","0.0-14.0-0.0-1.20","5f37dc3b4e588b26d099ceac","619531dcf66c91622fa1b861","619595f6f4924c7d4f95951b","4330","","s","true","[[8,227],[91,515],[382,588],[591,372],[508,84],[217,11]]","false","6","main_T2_Trial","s","img/Fire_Down_Target.gif","[""img/Fire_Up_Distractor.gif"",""img/Fire_Up_Distractor.gif"",""img/Fire_Up_Distractor.gif"",""img/Fire_Up_Distractor.gif"",""img/Fire_Up_Distractor.gif"",""img/Fire_Up_Distractor.gif"",""img/Fire_Up_Distractor.gif"",""img/Fire_Up_Distractor.gif"",""img/Fire_Up_Distractor.gif"",""img/Fire_Up_Distractor.gif"",""img/Fire_Up_Distractor.gif"",""img/Fire_Up_Distractor.gif""]","6","targetDown_distractorsUp"
"","","","","","html-keyboard-response","56","187235","0.0-14.0-0.0-0.21","5f37dc3b4e588b26d099ceac","619531dcf66c91622fa1b861","619595f6f4924c7d4f95951b","null","","null","","","","","main_T1_ITI","","","","",""
"","","","","","visual-search-circle","57","189859","0.0-14.0-0.0-1.21","5f37dc3b4e588b26d099ceac","619531dcf66c91622fa1b861","619595f6f4924c7d4f95951b","1611","","s","true","[[548,132],[323,0],[81,94],[3,343],[148,559],[408,579],[586,389]]","false","7","main_T2_Trial","s","img/Fire_Down_Target.gif","[""img/Fire_Up_Distractor.gif"",""img/Fire_Up_Distractor.gif"",""img/Fire_Up_Distractor.gif"",""img/Fire_Up_Distractor.gif"",""img/Fire_Up_Distractor.gif"",""img/Fire_Up_Distractor.gif"",""img/Fire_Up_Distractor.gif"",""img/Fire_Up_Distractor.gif"",""img/Fire_Up_Distractor.gif"",""img/Fire_Up_Distractor.gif"",""img/Fire_Up_Distractor.gif"",""img/Fire_Up_Distractor.gif""]","7","targetDown_distractorsUp"
"","","","","","html-keyboard-response","58","189859","0.0-14.0-0.0-0.22","5f37dc3b4e588b26d099ceac","619531dcf66c91622fa1b861","619595f6f4924c7d4f95951b","null","","null","","","","","main_T1_ITI","","","","",""
"","","","","","visual-search-circle","59","195365","0.0-14.0-0.0-1.22","5f37dc3b4e588b26d099ceac","619531dcf66c91622fa1b861","619595f6f4924c7d4f95951b","4494","","d","false","[[320,599],[569,431],[548,132],[279,0],[30,168],[51,467]]","false","6","main_T2_Trial","s","img/Fire_Up_Target.gif","[""img/Fire_Down_Distractor.gif"",""img/Fire_Down_Distractor.gif"",""img/Fire_Down_Distractor.gif"",""img/Fire_Down_Distractor.gif"",""img/Fire_Down_Distractor.gif"",""img/Fire_Down_Distractor.gif"",""img/Fire_Down_Distractor.gif"",""img/Fire_Down_Distractor.gif"",""img/Fire_Down_Distractor.gif"",""img/Fire_Down_Distractor.gif"",""img/Fire_Down_Distractor.gif"",""img/Fire_Down_Distractor.gif""]","6","targetUp_distractorsDown"
"","","","","","html-keyboard-response","60","195365","0.0-14.0-0.0-0.23","5f37dc3b4e588b26d099ceac","619531dcf66c91622fa1b861","619595f6f4924c7d4f95951b","null","","null","","","","","main_T1_ITI","","","","",""
"","","","","","visual-search-circle","61","197501","0.0-14.0-0.0-1.23","5f37dc3b4e588b26d099ceac","619531dcf66c91622fa1b861","619595f6f4924c7d4f95951b","1121","","d","true","[[84,508],[372,591],[588,382],[515,91],[227,8],[11,217]]","true","6","main_T2_Trial","d","img/Fire_Down_Target.gif","[""img/Fire_Up_Distractor.gif"",""img/Fire_Up_Distractor.gif"",""img/Fire_Up_Distractor.gif"",""img/Fire_Up_Distractor.gif"",""img/Fire_Up_Distractor.gif"",""img/Fire_Up_Distractor.gif"",""img/Fire_Up_Distractor.gif"",""img/Fire_Up_Distractor.gif"",""img/Fire_Up_Distractor.gif"",""img/Fire_Up_Distractor.gif"",""img/Fire_Up_Distractor.gif"",""img/Fire_Up_Distractor.gif""]","6","targetDown_distractorsUp"
"","","","","","html-keyboard-response","62","197501","0.0-14.0-0.0-0.24","5f37dc3b4e588b26d099ceac","619531dcf66c91622fa1b861","619595f6f4924c7d4f95951b","null","","null","","","","","main_T1_ITI","","","","",""
"","","","","","visual-search-circle","63","202574","0.0-14.0-0.0-1.24","5f37dc3b4e588b26d099ceac","619531dcf66c91622fa1b861","619595f6f4924c7d4f95951b","4065","","s","true","[[60,480],[397,583],[599,294],[387,13],[54,127]]","false","5","main_T2_Trial","s","img/Fire_Up_Target.gif","[""img/Fire_Down_Distractor.gif"",""img/Fire_Down_Distractor.gif"",""img/Fire_Down_Distractor.gif"",""img/Fire_Down_Distractor.gif"",""img/Fire_Down_Distractor.gif"",""img/Fire_Down_Distractor.gif"",""img/Fire_Down_Distractor.gif"",""img/Fire_Down_Distractor.gif"",""img/Fire_Down_Distractor.gif"",""img/Fire_Down_Distractor.gif"",""img/Fire_Down_Distractor.gif"",""img/Fire_Down_Distractor.gif""]","5","targetUp_distractorsDown"
"","","","","","html-keyboard-response","64","202574","0.0-14.0-0.0-0.25","5f37dc3b4e588b26d099ceac","619531dcf66c91622fa1b861","619595f6f4924c7d4f95951b","null","","null","","","","","main_T1_ITI","","","","",""
"","","","","","visual-search-circle","65","209845","0.0-14.0-0.0-1.25","5f37dc3b4e588b26d099ceac","619531dcf66c91622fa1b861","619595f6f4924c7d4f95951b","6264","","s","true","[[594,242],[467,51],[242,5],[51,132],[5,357],[132,548],[357,594],[548,467]]","false","8","main_T2_Trial","s","img/Fire_Down_Target.gif","[""img/Fire_Up_Distractor.gif"",""img/Fire_Up_Distractor.gif"",""img/Fire_Up_Distractor.gif"",""img/Fire_Up_Distractor.gif"",""img/Fire_Up_Distractor.gif"",""img/Fire_Up_Distractor.gif"",""img/Fire_Up_Distractor.gif"",""img/Fire_Up_Distractor.gif"",""img/Fire_Up_Distractor.gif"",""img/Fire_Up_Distractor.gif"",""img/Fire_Up_Distractor.gif"",""img/Fire_Up_Distractor.gif""]","8","targetDown_distractorsUp"
"","","","","","html-keyboard-response","66","209845","0.0-14.0-0.0-0.26","5f37dc3b4e588b26d099ceac","619531dcf66c91622fa1b861","619595f6f4924c7d4f95951b","null","","null","","","","","main_T1_ITI","","","","",""
"","","","","","visual-search-circle","67","218495","0.0-14.0-0.0-1.26","5f37dc3b4e588b26d099ceac","619531dcf66c91622fa1b861","619595f6f4924c7d4f95951b","7638","","s","true","[[310,0],[72,104],[5,356],[160,565],[420,574],[589,376],[540,121]]","false","7","main_T2_Trial","s","img/Fire_Up_Target.gif","[""img/Fire_Down_Distractor.gif"",""img/Fire_Down_Distractor.gif"",""img/Fire_Down_Distractor.gif"",""img/Fire_Down_Distractor.gif"",""img/Fire_Down_Distractor.gif"",""img/Fire_Down_Distractor.gif"",""img/Fire_Down_Distractor.gif"",""img/Fire_Down_Distractor.gif"",""img/Fire_Down_Distractor.gif"",""img/Fire_Down_Distractor.gif"",""img/Fire_Down_Distractor.gif"",""img/Fire_Down_Distractor.gif""]","7","targetUp_distractorsDown"
"","","","","","html-keyboard-response","68","218495","0.0-14.0-0.0-0.27","5f37dc3b4e588b26d099ceac","619531dcf66c91622fa1b861","619595f6f4924c7d4f95951b","null","","null","","","","","main_T1_ITI","","","","",""
"","","","","","visual-search-circle","69","223897","0.0-14.0-0.0-1.27","5f37dc3b4e588b26d099ceac","619531dcf66c91622fa1b861","619595f6f4924c7d4f95951b","4399","","s","true","[[294,0],[62,117],[8,371],[174,572],[434,567],[593,361],[531,108]]","false","7","main_T2_Trial","s","img/Fire_Down_Target.gif","[""img/Fire_Up_Distractor.gif"",""img/Fire_Up_Distractor.gif"",""img/Fire_Up_Distractor.gif"",""img/Fire_Up_Distractor.gif"",""img/Fire_Up_Distractor.gif"",""img/Fire_Up_Distractor.gif"",""img/Fire_Up_Distractor.gif"",""img/Fire_Up_Distractor.gif"",""img/Fire_Up_Distractor.gif"",""img/Fire_Up_Distractor.gif"",""img/Fire_Up_Distractor.gif"",""img/Fire_Up_Distractor.gif""]","7","targetDown_distractorsUp"
"","","","","","html-keyboard-response","70","223897","0.0-14.0-0.0-0.28","5f37dc3b4e588b26d099ceac","619531dcf66c91622fa1b861","619595f6f4924c7d4f95951b","null","","null","","","","","main_T1_ITI","","","","",""
"","","","","","visual-search-circle","71","225831","0.0-14.0-0.0-1.28","5f37dc3b4e588b26d099ceac","619531dcf66c91622fa1b861","619595f6f4924c7d4f95951b","930","","d","true","[[84,508],[294,599],[508,515],[599,305],[515,91],[305,0],[91,84],[0,294]]","true","8","main_T2_Trial","d","img/Fire_Down_Target.gif","[""img/Fire_Up_Distractor.gif"",""img/Fire_Up_Distractor.gif"",""img/Fire_Up_Distractor.gif"",""img/Fire_Up_Distractor.gif"",""img/Fire_Up_Distractor.gif"",""img/Fire_Up_Distractor.gif"",""img/Fire_Up_Distractor.gif"",""img/Fire_Up_Distractor.gif"",""img/Fire_Up_Distractor.gif"",""img/Fire_Up_Distractor.gif"",""img/Fire_Up_Distractor.gif"",""img/Fire_Up_Distractor.gif""]","8","targetDown_distractorsUp"
"","","","","","html-keyboard-response","72","225831","0.0-14.0-0.0-0.29","5f37dc3b4e588b26d099ceac","619531dcf66c91622fa1b861","619595f6f4924c7d4f95951b","null","","null","","","","","main_T1_ITI","","","","",""
"","","","","","visual-search-circle","73","231945","0.0-14.0-0.0-1.29","5f37dc3b4e588b26d099ceac","619531dcf66c91622fa1b861","619595f6f4924c7d4f95951b","5111","","d","true","[[222,10],[10,377],[377,589],[589,222]]","true","4","main_T2_Trial","d","img/Fire_Down_Target.gif","[""img/Fire_Up_Distractor.gif"",""img/Fire_Up_Distractor.gif"",""img/Fire_Up_Distractor.gif"",""img/Fire_Up_Distractor.gif"",""img/Fire_Up_Distractor.gif"",""img/Fire_Up_Distractor.gif"",""img/Fire_Up_Distractor.gif"",""img/Fire_Up_Distractor.gif"",""img/Fire_Up_Distractor.gif"",""img/Fire_Up_Distractor.gif"",""img/Fire_Up_Distractor.gif"",""img/Fire_Up_Distractor.gif""]","4","targetDown_distractorsUp"
"","","","","","html-keyboard-response","74","231945","0.0-14.0-0.0-0.30","5f37dc3b4e588b26d099ceac","619531dcf66c91622fa1b861","619595f6f4924c7d4f95951b","null","","null","","","","","main_T1_ITI","","","","",""
"","","","","","visual-search-circle","75","234209","0.0-14.0-0.0-1.30","5f37dc3b4e588b26d099ceac","619531dcf66c91622fa1b861","619595f6f4924c7d4f95951b","1260","","d","true","[[51,132],[13,389],[191,579],[451,559],[596,343],[518,94],[276,0]]","true","7","main_T2_Trial","d","img/Fire_Up_Target.gif","[""img/Fire_Down_Distractor.gif"",""img/Fire_Down_Distractor.gif"",""img/Fire_Down_Distractor.gif"",""img/Fire_Down_Distractor.gif"",""img/Fire_Down_Distractor.gif"",""img/Fire_Down_Distractor.gif"",""img/Fire_Down_Distractor.gif"",""img/Fire_Down_Distractor.gif"",""img/Fire_Down_Distractor.gif"",""img/Fire_Down_Distractor.gif"",""img/Fire_Down_Distractor.gif"",""img/Fire_Down_Distractor.gif""]","7","targetUp_distractorsDown"
"","","","","","html-keyboard-response","76","234209","0.0-14.0-0.0-0.31","5f37dc3b4e588b26d099ceac","619531dcf66c91622fa1b861","619595f6f4924c7d4f95951b","null","","null","","","","","main_T1_ITI","","","","",""
"","","","","","visual-search-circle","77","237572","0.0-14.0-0.0-1.31","5f37dc3b4e588b26d099ceac","619531dcf66c91622fa1b861","619595f6f4924c7d4f95951b","2354","","d","true","[[557,454],[581,195],[393,14],[135,49],[1,272],[92,516],[339,597]]","true","7","main_T2_Trial","d","img/Fire_Down_Target.gif","[""img/Fire_Up_Distractor.gif"",""img/Fire_Up_Distractor.gif"",""img/Fire_Up_Distractor.gif"",""img/Fire_Up_Distractor.gif"",""img/Fire_Up_Distractor.gif"",""img/Fire_Up_Distractor.gif"",""img/Fire_Up_Distractor.gif"",""img/Fire_Up_Distractor.gif"",""img/Fire_Up_Distractor.gif"",""img/Fire_Up_Distractor.gif"",""img/Fire_Up_Distractor.gif"",""img/Fire_Up_Distractor.gif""]","7","targetDown_distractorsUp"
"","","","","","html-keyboard-response","78","237572","0.0-14.0-0.0-0.32","5f37dc3b4e588b26d099ceac","619531dcf66c91622fa1b861","619595f6f4924c7d4f95951b","null","","null","","","","","main_T1_ITI","","","","",""
"","","","","","visual-search-circle","79","241321","0.0-14.0-0.0-1.32","5f37dc3b4e588b26d099ceac","619531dcf66c91622fa1b861","619595f6f4924c7d4f95951b","2744","","s","true","[[536,115],[197,18],[0,310],[217,588],[548,467]]","false","5","main_T2_Trial","s","img/Fire_Down_Target.gif","[""img/Fire_Up_Distractor.gif"",""img/Fire_Up_Distractor.gif"",""img/Fire_Up_Distractor.gif"",""img/Fire_Up_Distractor.gif"",""img/Fire_Up_Distractor.gif"",""img/Fire_Up_Distractor.gif"",""img/Fire_Up_Distractor.gif"",""img/Fire_Up_Distractor.gif"",""img/Fire_Up_Distractor.gif"",""img/Fire_Up_Distractor.gif"",""img/Fire_Up_Distractor.gif"",""img/Fire_Up_Distractor.gif""]","5","targetDown_distractorsUp"
"","","","","","html-keyboard-response","80","241321","0.0-14.0-0.0-0.33","5f37dc3b4e588b26d099ceac","619531dcf66c91622fa1b861","619595f6f4924c7d4f95951b","null","","null","","","","","main_T1_ITI","","","","",""
"","","","","","visual-search-circle","81","246747","0.0-14.0-0.0-1.33","5f37dc3b4e588b26d099ceac","619531dcf66c91622fa1b861","619595f6f4924c7d4f95951b","4416","","d","true","[[377,10],[48,136],[66,488],[407,580],[599,284]]","true","5","main_T2_Trial","d","img/Fire_Up_Target.gif","[""img/Fire_Down_Distractor.gif"",""img/Fire_Down_Distractor.gif"",""img/Fire_Down_Distractor.gif"",""img/Fire_Down_Distractor.gif"",""img/Fire_Down_Distractor.gif"",""img/Fire_Down_Distractor.gif"",""img/Fire_Down_Distractor.gif"",""img/Fire_Down_Distractor.gif"",""img/Fire_Down_Distractor.gif"",""img/Fire_Down_Distractor.gif"",""img/Fire_Down_Distractor.gif"",""img/Fire_Down_Distractor.gif""]","5","targetUp_distractorsDown"
"","","","","","html-keyboard-response","82","246748","0.0-14.0-0.0-0.34","5f37dc3b4e588b26d099ceac","619531dcf66c91622fa1b861","619595f6f4924c7d4f95951b","null","","null","","","","","main_T1_ITI","","","","",""
"","","","","","visual-search-circle","83","248708","0.0-14.0-0.0-1.34","5f37dc3b4e588b26d099ceac","619531dcf66c91622fa1b861","619595f6f4924c7d4f95951b","943","","d","true","[[127,54],[4,247],[54,472],[247,595],[472,545],[595,352],[545,127],[352,4]]","true","8","main_T2_Trial","d","img/Fire_Down_Target.gif","[""img/Fire_Up_Distractor.gif"",""img/Fire_Up_Distractor.gif"",""img/Fire_Up_Distractor.gif"",""img/Fire_Up_Distractor.gif"",""img/Fire_Up_Distractor.gif"",""img/Fire_Up_Distractor.gif"",""img/Fire_Up_Distractor.gif"",""img/Fire_Up_Distractor.gif"",""img/Fire_Up_Distractor.gif"",""img/Fire_Up_Distractor.gif"",""img/Fire_Up_Distractor.gif"",""img/Fire_Up_Distractor.gif""]","8","targetDown_distractorsUp"
"","","","","","html-keyboard-response","84","248708","0.0-14.0-0.0-0.35","5f37dc3b4e588b26d099ceac","619531dcf66c91622fa1b861","619595f6f4924c7d4f95951b","null","","null","","","","","main_T1_ITI","","","","",""
"","","","","","visual-search-circle","85","251588","0.0-14.0-0.0-1.35","5f37dc3b4e588b26d099ceac","619531dcf66c91622fa1b861","619595f6f4924c7d4f95951b","1872","","d","true","[[23,182],[36,442],[247,595],[497,525],[599,285],[475,56],[219,11]]","true","7","main_T2_Trial","d","img/Fire_Up_Target.gif","[""img/Fire_Down_Distractor.gif"",""img/Fire_Down_Distractor.gif"",""img/Fire_Down_Distractor.gif"",""img/Fire_Down_Distractor.gif"",""img/Fire_Down_Distractor.gif"",""img/Fire_Down_Distractor.gif"",""img/Fire_Down_Distractor.gif"",""img/Fire_Down_Distractor.gif"",""img/Fire_Down_Distractor.gif"",""img/Fire_Down_Distractor.gif"",""img/Fire_Down_Distractor.gif"",""img/Fire_Down_Distractor.gif""]","7","targetUp_distractorsDown"
"","","","","","html-keyboard-response","86","251588","0.0-14.0-0.0-0.36","5f37dc3b4e588b26d099ceac","619531dcf66c91622fa1b861","619595f6f4924c7d4f95951b","null","","null","","","","","main_T1_ITI","","","","",""
"","","","","","visual-search-circle","87","258830","0.0-14.0-0.0-1.36","5f37dc3b4e588b26d099ceac","619531dcf66c91622fa1b861","619595f6f4924c7d4f95951b","6234","","s","true","[[10,222],[87,512],[377,589],[589,377],[512,87],[222,10]]","false","6","main_T2_Trial","s","img/Fire_Up_Target.gif","[""img/Fire_Down_Distractor.gif"",""img/Fire_Down_Distractor.gif"",""img/Fire_Down_Distractor.gif"",""img/Fire_Down_Distractor.gif"",""img/Fire_Down_Distractor.gif"",""img/Fire_Down_Distractor.gif"",""img/Fire_Down_Distractor.gif"",""img/Fire_Down_Distractor.gif"",""img/Fire_Down_Distractor.gif"",""img/Fire_Down_Distractor.gif"",""img/Fire_Down_Distractor.gif"",""img/Fire_Down_Distractor.gif""]","6","targetUp_distractorsDown"
"","","","","","html-keyboard-response","88","258830","0.0-14.0-0.0-0.37","5f37dc3b4e588b26d099ceac","619531dcf66c91622fa1b861","619595f6f4924c7d4f95951b","null","","null","","","","","main_T1_ITI","","","","",""
"","","","","","visual-search-circle","89","266093","0.0-14.0-0.0-1.37","5f37dc3b4e588b26d099ceac","619531dcf66c91622fa1b861","619595f6f4924c7d4f95951b","6261","","d","true","[[284,599],[524,499],[595,248],[444,36],[184,23],[11,218],[55,474]]","true","7","main_T2_Trial","d","img/Fire_Up_Target.gif","[""img/Fire_Down_Distractor.gif"",""img/Fire_Down_Distractor.gif"",""img/Fire_Down_Distractor.gif"",""img/Fire_Down_Distractor.gif"",""img/Fire_Down_Distractor.gif"",""img/Fire_Down_Distractor.gif"",""img/Fire_Down_Distractor.gif"",""img/Fire_Down_Distractor.gif"",""img/Fire_Down_Distractor.gif"",""img/Fire_Down_Distractor.gif"",""img/Fire_Down_Distractor.gif"",""img/Fire_Down_Distractor.gif""]","7","targetUp_distractorsDown"
"","","","","","html-keyboard-response","90","266093","0.0-14.0-0.0-0.38","5f37dc3b4e588b26d099ceac","619531dcf66c91622fa1b861","619595f6f4924c7d4f95951b","null","","null","","","","","main_T1_ITI","","","","",""
"","","","","","visual-search-circle","91","268455","0.0-14.0-0.0-1.38","5f37dc3b4e588b26d099ceac","619531dcf66c91622fa1b861","619595f6f4924c7d4f95951b","1353","","d","true","[[362,6],[109,68],[0,304],[116,537],[371,591],[572,426],[568,165]]","true","7","main_T2_Trial","d","img/Fire_Down_Target.gif","[""img/Fire_Up_Distractor.gif"",""img/Fire_Up_Distractor.gif"",""img/Fire_Up_Distractor.gif"",""img/Fire_Up_Distractor.gif"",""img/Fire_Up_Distractor.gif"",""img/Fire_Up_Distractor.gif"",""img/Fire_Up_Distractor.gif"",""img/Fire_Up_Distractor.gif"",""img/Fire_Up_Distractor.gif"",""img/Fire_Up_Distractor.gif"",""img/Fire_Up_Distractor.gif"",""img/Fire_Up_Distractor.gif""]","7","targetDown_distractorsUp"
"","","","","","html-keyboard-response","92","269879","0.0-14.0-0.0-0.39","5f37dc3b4e588b26d099ceac","619531dcf66c91622fa1b861","619595f6f4924c7d4f95951b","1424","Wow! You've completed 40 out of 160 trials! </p> <p>  </p><p> Take a quick break, then press any key when you're ready to continue."," ","","","","","main_T1_ITI","","","","",""
"","","","","","visual-search-circle","93","272527","0.0-14.0-0.0-1.39","5f37dc3b4e588b26d099ceac","619531dcf66c91622fa1b861","619595f6f4924c7d4f95951b","1638","","s","true","[[377,10],[48,136],[66,488],[407,580],[599,284]]","false","5","main_T2_Trial","s","img/Fire_Up_Target.gif","[""img/Fire_Down_Distractor.gif"",""img/Fire_Down_Distractor.gif"",""img/Fire_Down_Distractor.gif"",""img/Fire_Down_Distractor.gif"",""img/Fire_Down_Distractor.gif"",""img/Fire_Down_Distractor.gif"",""img/Fire_Down_Distractor.gif"",""img/Fire_Down_Distractor.gif"",""img/Fire_Down_Distractor.gif"",""img/Fire_Down_Distractor.gif"",""img/Fire_Down_Distractor.gif"",""img/Fire_Down_Distractor.gif""]","5","targetUp_distractorsDown"
"","","","","","html-keyboard-response","94","272527","0.0-14.0-0.0-0.40","5f37dc3b4e588b26d099ceac","619531dcf66c91622fa1b861","619595f6f4924c7d4f95951b","null","","null","","","","","main_T1_ITI","","","","",""
"","","","","","visual-search-circle","95","275175","0.0-14.0-0.0-1.40","5f37dc3b4e588b26d099ceac","619531dcf66c91622fa1b861","619595f6f4924c7d4f95951b","1632","","d","true","[[426,28],[28,173],[173,571],[571,426]]","true","4","main_T2_Trial","d","img/Fire_Up_Target.gif","[""img/Fire_Down_Distractor.gif"",""img/Fire_Down_Distractor.gif"",""img/Fire_Down_Distractor.gif"",""img/Fire_Down_Distractor.gif"",""img/Fire_Down_Distractor.gif"",""img/Fire_Down_Distractor.gif"",""img/Fire_Down_Distractor.gif"",""img/Fire_Down_Distractor.gif"",""img/Fire_Down_Distractor.gif"",""img/Fire_Down_Distractor.gif"",""img/Fire_Down_Distractor.gif"",""img/Fire_Down_Distractor.gif""]","4","targetUp_distractorsDown"
"","","","","","html-keyboard-response","96","275176","0.0-14.0-0.0-0.41","5f37dc3b4e588b26d099ceac","619531dcf66c91622fa1b861","619595f6f4924c7d4f95951b","null","","null","","","","","main_T1_ITI","","","","",""
"","","","","","visual-search-circle","97","277655","0.0-14.0-0.0-1.41","5f37dc3b4e588b26d099ceac","619531dcf66c91622fa1b861","619595f6f4924c7d4f95951b","1476","","d","true","[[289,0],[80,95],[0,310],[95,519],[310,599],[519,504],[599,289],[504,80]]","true","8","main_T2_Trial","d","img/Fire_Up_Target.gif","[""img/Fire_Down_Distractor.gif"",""img/Fire_Down_Distractor.gif"",""img/Fire_Down_Distractor.gif"",""img/Fire_Down_Distractor.gif"",""img/Fire_Down_Distractor.gif"",""img/Fire_Down_Distractor.gif"",""img/Fire_Down_Distractor.gif"",""img/Fire_Down_Distractor.gif"",""img/Fire_Down_Distractor.gif"",""img/Fire_Down_Distractor.gif"",""img/Fire_Down_Distractor.gif"",""img/Fire_Down_Distractor.gif""]","8","targetUp_distractorsDown"
"","","","","","html-keyboard-response","98","277655","0.0-14.0-0.0-0.42","5f37dc3b4e588b26d099ceac","619531dcf66c91622fa1b861","619595f6f4924c7d4f95951b","null","","null","","","","","main_T1_ITI","","","","",""
"","","","","","visual-search-circle","99","280216","0.0-14.0-0.0-1.42","5f37dc3b4e588b26d099ceac","619531dcf66c91622fa1b861","619595f6f4924c7d4f95951b","1558","","s","true","[[60,119],[2,341],[119,539],[341,597],[539,480],[597,258],[480,60],[258,2]]","false","8","main_T2_Trial","s","img/Fire_Up_Target.gif","[""img/Fire_Down_Distractor.gif"",""img/Fire_Down_Distractor.gif"",""img/Fire_Down_Distractor.gif"",""img/Fire_Down_Distractor.gif"",""img/Fire_Down_Distractor.gif"",""img/Fire_Down_Distractor.gif"",""img/Fire_Down_Distractor.gif"",""img/Fire_Down_Distractor.gif"",""img/Fire_Down_Distractor.gif"",""img/Fire_Down_Distractor.gif"",""img/Fire_Down_Distractor.gif"",""img/Fire_Down_Distractor.gif""]","8","targetUp_distractorsDown"
"","","","","","html-keyboard-response","100","280216","0.0-14.0-0.0-0.43","5f37dc3b4e588b26d099ceac","619531dcf66c91622fa1b861","619595f6f4924c7d4f95951b","null","","null","","","","","main_T1_ITI","","","","",""
"","","","","","visual-search-circle","101","282391","0.0-14.0-0.0-1.43","5f37dc3b4e588b26d099ceac","619531dcf66c91622fa1b861","619595f6f4924c7d4f95951b","1169","","s","true","[[387,586],[564,440],[586,212],[440,35],[212,13],[35,159],[13,387],[159,564]]","false","8","main_T2_Trial","s","img/Fire_Down_Target.gif","[""img/Fire_Up_Distractor.gif"",""img/Fire_Up_Distractor.gif"",""img/Fire_Up_Distractor.gif"",""img/Fire_Up_Distractor.gif"",""img/Fire_Up_Distractor.gif"",""img/Fire_Up_Distractor.gif"",""img/Fire_Up_Distractor.gif"",""img/Fire_Up_Distractor.gif"",""img/Fire_Up_Distractor.gif"",""img/Fire_Up_Distractor.gif"",""img/Fire_Up_Distractor.gif"",""img/Fire_Up_Distractor.gif""]","8","targetDown_distractorsUp"
"","","","","","html-keyboard-response","102","282391","0.0-14.0-0.0-0.44","5f37dc3b4e588b26d099ceac","619531dcf66c91622fa1b861","619595f6f4924c7d4f95951b","null","","null","","","","","main_T1_ITI","","","","",""
"","","","","","visual-search-circle","103","284503","0.0-14.0-0.0-1.44","5f37dc3b4e588b26d099ceac","619531dcf66c91622fa1b861","619595f6f4924c7d4f95951b","1107","","d","true","[[247,595],[564,440],[515,91],[168,30],[2,341]]","true","5","main_T2_Trial","d","img/Fire_Down_Target.gif","[""img/Fire_Up_Distractor.gif"",""img/Fire_Up_Distractor.gif"",""img/Fire_Up_Distractor.gif"",""img/Fire_Up_Distractor.gif"",""img/Fire_Up_Distractor.gif"",""img/Fire_Up_Distractor.gif"",""img/Fire_Up_Distractor.gif"",""img/Fire_Up_Distractor.gif"",""img/Fire_Up_Distractor.gif"",""img/Fire_Up_Distractor.gif"",""img/Fire_Up_Distractor.gif"",""img/Fire_Up_Distractor.gif""]","5","targetDown_distractorsUp"
"","","","","","html-keyboard-response","104","284503","0.0-14.0-0.0-0.45","5f37dc3b4e588b26d099ceac","619531dcf66c91622fa1b861","619595f6f4924c7d4f95951b","null","","null","","","","","main_T1_ITI","","","","",""
"","","","","","visual-search-circle","105","288441","0.0-14.0-0.0-1.45","5f37dc3b4e588b26d099ceac","619531dcf66c91622fa1b861","619595f6f4924c7d4f95951b","2932","","d","false","[[588,382],[382,11],[11,217],[217,588]]","false","4","main_T2_Trial","s","img/Fire_Down_Target.gif","[""img/Fire_Up_Distractor.gif"",""img/Fire_Up_Distractor.gif"",""img/Fire_Up_Distractor.gif"",""img/Fire_Up_Distractor.gif"",""img/Fire_Up_Distractor.gif"",""img/Fire_Up_Distractor.gif"",""img/Fire_Up_Distractor.gif"",""img/Fire_Up_Distractor.gif"",""img/Fire_Up_Distractor.gif"",""img/Fire_Up_Distractor.gif"",""img/Fire_Up_Distractor.gif"",""img/Fire_Up_Distractor.gif""]","4","targetDown_distractorsUp"
"","","","","","html-keyboard-response","106","288442","0.0-14.0-0.0-0.46","5f37dc3b4e588b26d099ceac","619531dcf66c91622fa1b861","619595f6f4924c7d4f95951b","null","","null","","","","","main_T1_ITI","","","","",""
"","","","","","visual-search-circle","107","291074","0.0-14.0-0.0-1.46","5f37dc3b4e588b26d099ceac","619531dcf66c91622fa1b861","619595f6f4924c7d4f95951b","1619","","s","true","[[54,127],[28,426],[273,598],[545,472],[571,173],[326,1]]","false","6","main_T2_Trial","s","img/Fire_Up_Target.gif","[""img/Fire_Down_Distractor.gif"",""img/Fire_Down_Distractor.gif"",""img/Fire_Down_Distractor.gif"",""img/Fire_Down_Distractor.gif"",""img/Fire_Down_Distractor.gif"",""img/Fire_Down_Distractor.gif"",""img/Fire_Down_Distractor.gif"",""img/Fire_Down_Distractor.gif"",""img/Fire_Down_Distractor.gif"",""img/Fire_Down_Distractor.gif"",""img/Fire_Down_Distractor.gif"",""img/Fire_Down_Distractor.gif""]","6","targetUp_distractorsDown"
"","","","","","html-keyboard-response","108","291074","0.0-14.0-0.0-0.47","5f37dc3b4e588b26d099ceac","619531dcf66c91622fa1b861","619595f6f4924c7d4f95951b","null","","null","","","","","main_T1_ITI","","","","",""
"","","","","","visual-search-circle","109","293713","0.0-14.0-0.0-1.47","5f37dc3b4e588b26d099ceac","619531dcf66c91622fa1b861","619595f6f4924c7d4f95951b","1638","","s","true","[[585,207],[207,14],[14,392],[392,585]]","false","4","main_T2_Trial","s","img/Fire_Down_Target.gif","[""img/Fire_Up_Distractor.gif"",""img/Fire_Up_Distractor.gif"",""img/Fire_Up_Distractor.gif"",""img/Fire_Up_Distractor.gif"",""img/Fire_Up_Distractor.gif"",""img/Fire_Up_Distractor.gif"",""img/Fire_Up_Distractor.gif"",""img/Fire_Up_Distractor.gif"",""img/Fire_Up_Distractor.gif"",""img/Fire_Up_Distractor.gif"",""img/Fire_Up_Distractor.gif"",""img/Fire_Up_Distractor.gif""]","4","targetDown_distractorsUp"
"","","","","","html-keyboard-response","110","293713","0.0-14.0-0.0-0.48","5f37dc3b4e588b26d099ceac","619531dcf66c91622fa1b861","619595f6f4924c7d4f95951b","null","","null","","","","","main_T1_ITI","","","","",""
"","","","","","visual-search-circle","111","296027","0.0-14.0-0.0-1.48","5f37dc3b4e588b26d099ceac","619531dcf66c91622fa1b861","619595f6f4924c7d4f95951b","1307","","d","true","[[407,19],[19,192],[192,580],[580,407]]","true","4","main_T2_Trial","d","img/Fire_Up_Target.gif","[""img/Fire_Down_Distractor.gif"",""img/Fire_Down_Distractor.gif"",""img/Fire_Down_Distractor.gif"",""img/Fire_Down_Distractor.gif"",""img/Fire_Down_Distractor.gif"",""img/Fire_Down_Distractor.gif"",""img/Fire_Down_Distractor.gif"",""img/Fire_Down_Distractor.gif"",""img/Fire_Down_Distractor.gif"",""img/Fire_Down_Distractor.gif"",""img/Fire_Down_Distractor.gif"",""img/Fire_Down_Distractor.gif""]","4","targetUp_distractorsDown"
"","","","","","html-keyboard-response","112","296027","0.0-14.0-0.0-0.49","5f37dc3b4e588b26d099ceac","619531dcf66c91622fa1b861","619595f6f4924c7d4f95951b","null","","null","","","","","main_T1_ITI","","","","",""
"","","","","","visual-search-circle","113","298073","0.0-14.0-0.0-1.49","5f37dc3b4e588b26d099ceac","619531dcf66c91622fa1b861","619595f6f4924c7d4f95951b","1039","","d","true","[[562,445],[557,145],[294,0],[37,154],[42,454],[305,599]]","true","6","main_T2_Trial","d","img/Fire_Up_Target.gif","[""img/Fire_Down_Distractor.gif"",""img/Fire_Down_Distractor.gif"",""img/Fire_Down_Distractor.gif"",""img/Fire_Down_Distractor.gif"",""img/Fire_Down_Distractor.gif"",""img/Fire_Down_Distractor.gif"",""img/Fire_Down_Distractor.gif"",""img/Fire_Down_Distractor.gif"",""img/Fire_Down_Distractor.gif"",""img/Fire_Down_Distractor.gif"",""img/Fire_Down_Distractor.gif"",""img/Fire_Down_Distractor.gif""]","6","targetUp_distractorsDown"
"","","","","","html-keyboard-response","114","298074","0.0-14.0-0.0-0.50","5f37dc3b4e588b26d099ceac","619531dcf66c91622fa1b861","619595f6f4924c7d4f95951b","null","","null","","","","","main_T1_ITI","","","","",""
"","","","","","visual-search-circle","115","301129","0.0-14.0-0.0-1.50","5f37dc3b4e588b26d099ceac","619531dcf66c91622fa1b861","619595f6f4924c7d4f95951b","2046","","s","true","[[599,315],[407,19],[66,111],[48,463],[377,589]]","false","5","main_T2_Trial","s","img/Fire_Up_Target.gif","[""img/Fire_Down_Distractor.gif"",""img/Fire_Down_Distractor.gif"",""img/Fire_Down_Distractor.gif"",""img/Fire_Down_Distractor.gif"",""img/Fire_Down_Distractor.gif"",""img/Fire_Down_Distractor.gif"",""img/Fire_Down_Distractor.gif"",""img/Fire_Down_Distractor.gif"",""img/Fire_Down_Distractor.gif"",""img/Fire_Down_Distractor.gif"",""img/Fire_Down_Distractor.gif"",""img/Fire_Down_Distractor.gif""]","5","targetUp_distractorsDown"
"","","","","","html-keyboard-response","116","301129","0.0-14.0-0.0-0.51","5f37dc3b4e588b26d099ceac","619531dcf66c91622fa1b861","619595f6f4924c7d4f95951b","null","","null","","","","","main_T1_ITI","","","","",""
"","","","","","visual-search-circle","117","303003","0.0-14.0-0.0-1.51","5f37dc3b4e588b26d099ceac","619531dcf66c91622fa1b861","619595f6f4924c7d4f95951b","862","","d","true","[[599,289],[382,11],[51,132],[63,484],[402,581]]","true","5","main_T2_Trial","d","img/Fire_Up_Target.gif","[""img/Fire_Down_Distractor.gif"",""img/Fire_Down_Distractor.gif"",""img/Fire_Down_Distractor.gif"",""img/Fire_Down_Distractor.gif"",""img/Fire_Down_Distractor.gif"",""img/Fire_Down_Distractor.gif"",""img/Fire_Down_Distractor.gif"",""img/Fire_Down_Distractor.gif"",""img/Fire_Down_Distractor.gif"",""img/Fire_Down_Distractor.gif"",""img/Fire_Down_Distractor.gif"",""img/Fire_Down_Distractor.gif""]","5","targetUp_distractorsDown"
"","","","","","html-keyboard-response","118","303003","0.0-14.0-0.0-0.52","5f37dc3b4e588b26d099ceac","619531dcf66c91622fa1b861","619595f6f4924c7d4f95951b","null","","null","","","","","main_T1_ITI","","","","",""
"","","","","","visual-search-circle","119","305556","0.0-14.0-0.0-1.52","5f37dc3b4e588b26d099ceac","619531dcf66c91622fa1b861","619595f6f4924c7d4f95951b","1537","","d","true","[[107,70],[70,492],[492,529],[529,107]]","true","4","main_T2_Trial","d","img/Fire_Up_Target.gif","[""img/Fire_Down_Distractor.gif"",""img/Fire_Down_Distractor.gif"",""img/Fire_Down_Distractor.gif"",""img/Fire_Down_Distractor.gif"",""img/Fire_Down_Distractor.gif"",""img/Fire_Down_Distractor.gif"",""img/Fire_Down_Distractor.gif"",""img/Fire_Down_Distractor.gif"",""img/Fire_Down_Distractor.gif"",""img/Fire_Down_Distractor.gif"",""img/Fire_Down_Distractor.gif"",""img/Fire_Down_Distractor.gif""]","4","targetUp_distractorsDown"
"","","","","","html-keyboard-response","120","305556","0.0-14.0-0.0-0.53","5f37dc3b4e588b26d099ceac","619531dcf66c91622fa1b861","619595f6f4924c7d4f95951b","null","","null","","","","","main_T1_ITI","","","","",""
"","","","","","visual-search-circle","121","308107","0.0-14.0-0.0-1.53","5f37dc3b4e588b26d099ceac","619531dcf66c91622fa1b861","619595f6f4924c7d4f95951b","1538","","s","true","[[0,279],[73,496],[279,599],[496,526],[599,320],[526,103],[320,0],[103,73]]","false","8","main_T2_Trial","s","img/Fire_Up_Target.gif","[""img/Fire_Down_Distractor.gif"",""img/Fire_Down_Distractor.gif"",""img/Fire_Down_Distractor.gif"",""img/Fire_Down_Distractor.gif"",""img/Fire_Down_Distractor.gif"",""img/Fire_Down_Distractor.gif"",""img/Fire_Down_Distractor.gif"",""img/Fire_Down_Distractor.gif"",""img/Fire_Down_Distractor.gif"",""img/Fire_Down_Distractor.gif"",""img/Fire_Down_Distractor.gif"",""img/Fire_Down_Distractor.gif""]","8","targetUp_distractorsDown"
"","","","","","html-keyboard-response","122","308107","0.0-14.0-0.0-0.54","5f37dc3b4e588b26d099ceac","619531dcf66c91622fa1b861","619595f6f4924c7d4f95951b","null","","null","","","","","main_T1_ITI","","","","",""
"","","","","","visual-search-circle","123","312069","0.0-14.0-0.0-1.54","5f37dc3b4e588b26d099ceac","619531dcf66c91622fa1b861","619595f6f4924c7d4f95951b","2946","","s","true","[[25,177],[19,407],[177,574],[407,580],[574,422],[580,192],[422,25],[192,19]]","false","8","main_T2_Trial","s","img/Fire_Down_Target.gif","[""img/Fire_Up_Distractor.gif"",""img/Fire_Up_Distractor.gif"",""img/Fire_Up_Distractor.gif"",""img/Fire_Up_Distractor.gif"",""img/Fire_Up_Distractor.gif"",""img/Fire_Up_Distractor.gif"",""img/Fire_Up_Distractor.gif"",""img/Fire_Up_Distractor.gif"",""img/Fire_Up_Distractor.gif"",""img/Fire_Up_Distractor.gif"",""img/Fire_Up_Distractor.gif"",""img/Fire_Up_Distractor.gif""]","8","targetDown_distractorsUp"
"","","","","","html-keyboard-response","124","312070","0.0-14.0-0.0-0.55","5f37dc3b4e588b26d099ceac","619531dcf66c91622fa1b861","619595f6f4924c7d4f95951b","null","","null","","","","","main_T1_ITI","","","","",""
"","","","","","visual-search-circle","125","314004","0.0-14.0-0.0-1.55","5f37dc3b4e588b26d099ceac","619531dcf66c91622fa1b861","619595f6f4924c7d4f95951b","925","","d","true","[[242,5],[5,357],[357,594],[594,242]]","true","4","main_T2_Trial","d","img/Fire_Down_Target.gif","[""img/Fire_Up_Distractor.gif"",""img/Fire_Up_Distractor.gif"",""img/Fire_Up_Distractor.gif"",""img/Fire_Up_Distractor.gif"",""img/Fire_Up_Distractor.gif"",""img/Fire_Up_Distractor.gif"",""img/Fire_Up_Distractor.gif"",""img/Fire_Up_Distractor.gif"",""img/Fire_Up_Distractor.gif"",""img/Fire_Up_Distractor.gif"",""img/Fire_Up_Distractor.gif"",""img/Fire_Up_Distractor.gif""]","4","targetDown_distractorsUp"
"","","","","","html-keyboard-response","126","314004","0.0-14.0-0.0-0.56","5f37dc3b4e588b26d099ceac","619531dcf66c91622fa1b861","619595f6f4924c7d4f95951b","null","","null","","","","","main_T1_ITI","","","","",""
"","","","","","visual-search-circle","127","316661","0.0-14.0-0.0-1.56","5f37dc3b4e588b26d099ceac","619531dcf66c91622fa1b861","619595f6f4924c7d4f95951b","1657","","d","true","[[315,599],[589,377],[463,48],[111,66],[19,407]]","true","5","main_T2_Trial","d","img/Fire_Down_Target.gif","[""img/Fire_Up_Distractor.gif"",""img/Fire_Up_Distractor.gif"",""img/Fire_Up_Distractor.gif"",""img/Fire_Up_Distractor.gif"",""img/Fire_Up_Distractor.gif"",""img/Fire_Up_Distractor.gif"",""img/Fire_Up_Distractor.gif"",""img/Fire_Up_Distractor.gif"",""img/Fire_Up_Distractor.gif"",""img/Fire_Up_Distractor.gif"",""img/Fire_Up_Distractor.gif"",""img/Fire_Up_Distractor.gif""]","5","targetDown_distractorsUp"
"","","","","","html-keyboard-response","128","316661","0.0-14.0-0.0-0.57","5f37dc3b4e588b26d099ceac","619531dcf66c91622fa1b861","619595f6f4924c7d4f95951b","null","","null","","","","","main_T1_ITI","","","","",""
"","","","","","visual-search-circle","129","320565","0.0-14.0-0.0-1.57","5f37dc3b4e588b26d099ceac","619531dcf66c91622fa1b861","619595f6f4924c7d4f95951b","2896","","d","true","[[2,263],[119,539],[417,576],[597,336],[480,60],[182,23]]","true","6","main_T2_Trial","d","img/Fire_Up_Target.gif","[""img/Fire_Down_Distractor.gif"",""img/Fire_Down_Distractor.gif"",""img/Fire_Down_Distractor.gif"",""img/Fire_Down_Distractor.gif"",""img/Fire_Down_Distractor.gif"",""img/Fire_Down_Distractor.gif"",""img/Fire_Down_Distractor.gif"",""img/Fire_Down_Distractor.gif"",""img/Fire_Down_Distractor.gif"",""img/Fire_Down_Distractor.gif"",""img/Fire_Down_Distractor.gif"",""img/Fire_Down_Distractor.gif""]","6","targetUp_distractorsDown"
"","","","","","html-keyboard-response","130","320565","0.0-14.0-0.0-0.58","5f37dc3b4e588b26d099ceac","619531dcf66c91622fa1b861","619595f6f4924c7d4f95951b","null","","null","","","","","main_T1_ITI","","","","",""
"","","","","","visual-search-circle","131","322757","0.0-14.0-0.0-1.58","5f37dc3b4e588b26d099ceac","619531dcf66c91622fa1b861","619595f6f4924c7d4f95951b","1187","","s","true","[[599,320],[467,51],[168,30],[0,279],[132,548],[431,569]]","false","6","main_T2_Trial","s","img/Fire_Up_Target.gif","[""img/Fire_Down_Distractor.gif"",""img/Fire_Down_Distractor.gif"",""img/Fire_Down_Distractor.gif"",""img/Fire_Down_Distractor.gif"",""img/Fire_Down_Distractor.gif"",""img/Fire_Down_Distractor.gif"",""img/Fire_Down_Distractor.gif"",""img/Fire_Down_Distractor.gif"",""img/Fire_Down_Distractor.gif"",""img/Fire_Down_Distractor.gif"",""img/Fire_Down_Distractor.gif"",""img/Fire_Down_Distractor.gif""]","6","targetUp_distractorsDown"
"","","","","","html-keyboard-response","132","324301","0.0-14.0-0.0-0.59","5f37dc3b4e588b26d099ceac","619531dcf66c91622fa1b861","619595f6f4924c7d4f95951b","1544","Wow! You've completed 60 out of 160 trials! </p> <p>  </p><p> Take a quick break, then press any key when you're ready to continue."," ","","","","","main_T1_ITI","","","","",""
"","","","","","visual-search-circle","133","326941","0.0-14.0-0.0-1.59","5f37dc3b4e588b26d099ceac","619531dcf66c91622fa1b861","619595f6f4924c7d4f95951b","1625","","d","true","[[217,11],[0,289],[197,581],[536,484],[548,132]]","true","5","main_T2_Trial","d","img/Fire_Down_Target.gif","[""img/Fire_Up_Distractor.gif"",""img/Fire_Up_Distractor.gif"",""img/Fire_Up_Distractor.gif"",""img/Fire_Up_Distractor.gif"",""img/Fire_Up_Distractor.gif"",""img/Fire_Up_Distractor.gif"",""img/Fire_Up_Distractor.gif"",""img/Fire_Up_Distractor.gif"",""img/Fire_Up_Distractor.gif"",""img/Fire_Up_Distractor.gif"",""img/Fire_Up_Distractor.gif"",""img/Fire_Up_Distractor.gif""]","5","targetDown_distractorsUp"
"","","","","","html-keyboard-response","134","326942","0.0-14.0-0.0-0.60","5f37dc3b4e588b26d099ceac","619531dcf66c91622fa1b861","619595f6f4924c7d4f95951b","null","","null","","","","","main_T1_ITI","","","","",""
"","","","","","visual-search-circle","135","330238","0.0-14.0-0.0-1.60","5f37dc3b4e588b26d099ceac","619531dcf66c91622fa1b861","619595f6f4924c7d4f95951b","2280","","s","true","[[310,0],[45,141],[35,440],[289,599],[554,458],[564,159]]","false","6","main_T2_Trial","s","img/Fire_Down_Target.gif","[""img/Fire_Up_Distractor.gif"",""img/Fire_Up_Distractor.gif"",""img/Fire_Up_Distractor.gif"",""img/Fire_Up_Distractor.gif"",""img/Fire_Up_Distractor.gif"",""img/Fire_Up_Distractor.gif"",""img/Fire_Up_Distractor.gif"",""img/Fire_Up_Distractor.gif"",""img/Fire_Up_Distractor.gif"",""img/Fire_Up_Distractor.gif"",""img/Fire_Up_Distractor.gif"",""img/Fire_Up_Distractor.gif""]","6","targetDown_distractorsUp"
"","","","","","html-keyboard-response","136","330238","0.0-14.0-0.0-0.61","5f37dc3b4e588b26d099ceac","619531dcf66c91622fa1b861","619595f6f4924c7d4f95951b","null","","null","","","","","main_T1_ITI","","","","",""
"","","","","","visual-search-circle","137","334039","0.0-14.0-0.0-1.61","5f37dc3b4e588b26d099ceac","619531dcf66c91622fa1b861","619595f6f4924c7d4f95951b","2791","","s","true","[[284,599],[524,499],[595,248],[444,36],[184,23],[11,218],[55,474]]","false","7","main_T2_Trial","s","img/Fire_Up_Target.gif","[""img/Fire_Down_Distractor.gif"",""img/Fire_Down_Distractor.gif"",""img/Fire_Down_Distractor.gif"",""img/Fire_Down_Distractor.gif"",""img/Fire_Down_Distractor.gif"",""img/Fire_Down_Distractor.gif"",""img/Fire_Down_Distractor.gif"",""img/Fire_Down_Distractor.gif"",""img/Fire_Down_Distractor.gif"",""img/Fire_Down_Distractor.gif"",""img/Fire_Down_Distractor.gif"",""img/Fire_Down_Distractor.gif""]","7","targetUp_distractorsDown"
"","","","","","html-keyboard-response","138","334040","0.0-14.0-0.0-0.62","5f37dc3b4e588b26d099ceac","619531dcf66c91622fa1b861","619595f6f4924c7d4f95951b","null","","null","","","","","main_T1_ITI","","","","",""
"","","","","","visual-search-circle","139","339247","0.0-14.0-0.0-1.62","5f37dc3b4e588b26d099ceac","619531dcf66c91622fa1b861","619595f6f4924c7d4f95951b","4195","","d","true","[[545,472],[571,173],[326,1],[54,127],[28,426],[273,598]]","true","6","main_T2_Trial","d","img/Fire_Down_Target.gif","[""img/Fire_Up_Distractor.gif"",""img/Fire_Up_Distractor.gif"",""img/Fire_Up_Distractor.gif"",""img/Fire_Up_Distractor.gif"",""img/Fire_Up_Distractor.gif"",""img/Fire_Up_Distractor.gif"",""img/Fire_Up_Distractor.gif"",""img/Fire_Up_Distractor.gif"",""img/Fire_Up_Distractor.gif"",""img/Fire_Up_Distractor.gif"",""img/Fire_Up_Distractor.gif"",""img/Fire_Up_Distractor.gif""]","6","targetDown_distractorsUp"
"","","","","","html-keyboard-response","140","339247","0.0-14.0-0.0-0.63","5f37dc3b4e588b26d099ceac","619531dcf66c91622fa1b861","619595f6f4924c7d4f95951b","null","","null","","","","","main_T1_ITI","","","","",""
"","","","","","visual-search-circle","141","344592","0.0-14.0-0.0-1.63","5f37dc3b4e588b26d099ceac","619531dcf66c91622fa1b861","619595f6f4924c7d4f95951b","4337","","d","true","[[7,367],[367,592],[592,232],[232,7]]","true","4","main_T2_Trial","d","img/Fire_Down_Target.gif","[""img/Fire_Up_Distractor.gif"",""img/Fire_Up_Distractor.gif"",""img/Fire_Up_Distractor.gif"",""img/Fire_Up_Distractor.gif"",""img/Fire_Up_Distractor.gif"",""img/Fire_Up_Distractor.gif"",""img/Fire_Up_Distractor.gif"",""img/Fire_Up_Distractor.gif"",""img/Fire_Up_Distractor.gif"",""img/Fire_Up_Distractor.gif"",""img/Fire_Up_Distractor.gif"",""img/Fire_Up_Distractor.gif""]","4","targetDown_distractorsUp"
"","","","","","html-keyboard-response","142","344592","0.0-14.0-0.0-0.64","5f37dc3b4e588b26d099ceac","619531dcf66c91622fa1b861","619595f6f4924c7d4f95951b","null","","null","","","","","main_T1_ITI","","","","",""
"","","","","","visual-search-circle","143","348849","0.0-14.0-0.0-1.64","5f37dc3b4e588b26d099ceac","619531dcf66c91622fa1b861","619595f6f4924c7d4f95951b","3253","","d","true","[[0,289],[289,599],[599,310],[310,0]]","true","4","main_T2_Trial","d","img/Fire_Up_Target.gif","[""img/Fire_Down_Distractor.gif"",""img/Fire_Down_Distractor.gif"",""img/Fire_Down_Distractor.gif"",""img/Fire_Down_Distractor.gif"",""img/Fire_Down_Distractor.gif"",""img/Fire_Down_Distractor.gif"",""img/Fire_Down_Distractor.gif"",""img/Fire_Down_Distractor.gif"",""img/Fire_Down_Distractor.gif"",""img/Fire_Down_Distractor.gif"",""img/Fire_Down_Distractor.gif"",""img/Fire_Down_Distractor.gif""]","4","targetUp_distractorsDown"
"","","","","","html-keyboard-response","144","348849","0.0-14.0-0.0-0.65","5f37dc3b4e588b26d099ceac","619531dcf66c91622fa1b861","619595f6f4924c7d4f95951b","null","","null","","","","","main_T1_ITI","","","","",""
"","","","","","visual-search-circle","145","352379","0.0-14.0-0.0-1.65","5f37dc3b4e588b26d099ceac","619531dcf66c91622fa1b861","619595f6f4924c7d4f95951b","2528","","d","true","[[480,539],[539,119],[119,60],[60,480]]","true","4","main_T2_Trial","d","img/Fire_Down_Target.gif","[""img/Fire_Up_Distractor.gif"",""img/Fire_Up_Distractor.gif"",""img/Fire_Up_Distractor.gif"",""img/Fire_Up_Distractor.gif"",""img/Fire_Up_Distractor.gif"",""img/Fire_Up_Distractor.gif"",""img/Fire_Up_Distractor.gif"",""img/Fire_Up_Distractor.gif"",""img/Fire_Up_Distractor.gif"",""img/Fire_Up_Distractor.gif"",""img/Fire_Up_Distractor.gif"",""img/Fire_Up_Distractor.gif""]","4","targetDown_distractorsUp"
"","","","","","html-keyboard-response","146","352379","0.0-14.0-0.0-0.66","5f37dc3b4e588b26d099ceac","619531dcf66c91622fa1b861","619595f6f4924c7d4f95951b","null","","null","","","","","main_T1_ITI","","","","",""
"","","","","","visual-search-circle","147","354249","0.0-14.0-0.0-1.66","5f37dc3b4e588b26d099ceac","619531dcf66c91622fa1b861","619595f6f4924c7d4f95951b","855","","s","true","[[294,599],[557,454],[562,154],[305,0],[42,145],[37,445]]","false","6","main_T2_Trial","s","img/Fire_Up_Target.gif","[""img/Fire_Down_Distractor.gif"",""img/Fire_Down_Distractor.gif"",""img/Fire_Down_Distractor.gif"",""img/Fire_Down_Distractor.gif"",""img/Fire_Down_Distractor.gif"",""img/Fire_Down_Distractor.gif"",""img/Fire_Down_Distractor.gif"",""img/Fire_Down_Distractor.gif"",""img/Fire_Down_Distractor.gif"",""img/Fire_Down_Distractor.gif"",""img/Fire_Down_Distractor.gif"",""img/Fire_Down_Distractor.gif""]","6","targetUp_distractorsDown"
"","","","","","html-keyboard-response","148","354249","0.0-14.0-0.0-0.67","5f37dc3b4e588b26d099ceac","619531dcf66c91622fa1b861","619595f6f4924c7d4f95951b","null","","null","","","","","main_T1_ITI","","","","",""
"","","","","","visual-search-circle","149","356169","0.0-14.0-0.0-1.67","5f37dc3b4e588b26d099ceac","619531dcf66c91622fa1b861","619595f6f4924c7d4f95951b","916","","d","true","[[284,599],[500,522],[599,315],[522,99],[315,0],[99,77],[0,284],[77,500]]","true","8","main_T2_Trial","d","img/Fire_Down_Target.gif","[""img/Fire_Up_Distractor.gif"",""img/Fire_Up_Distractor.gif"",""img/Fire_Up_Distractor.gif"",""img/Fire_Up_Distractor.gif"",""img/Fire_Up_Distractor.gif"",""img/Fire_Up_Distractor.gif"",""img/Fire_Up_Distractor.gif"",""img/Fire_Up_Distractor.gif"",""img/Fire_Up_Distractor.gif"",""img/Fire_Up_Distractor.gif"",""img/Fire_Up_Distractor.gif"",""img/Fire_Up_Distractor.gif""]","8","targetDown_distractorsUp"
"","","","","","html-keyboard-response","150","356169","0.0-14.0-0.0-0.68","5f37dc3b4e588b26d099ceac","619531dcf66c91622fa1b861","619595f6f4924c7d4f95951b","null","","null","","","","","main_T1_ITI","","","","",""
"","","","","","visual-search-circle","151","358450","0.0-14.0-0.0-1.68","5f37dc3b4e588b26d099ceac","619531dcf66c91622fa1b861","619595f6f4924c7d4f95951b","1273","","s","true","[[145,42],[8,227],[42,454],[227,591],[454,557],[591,372],[557,145],[372,8]]","false","8","main_T2_Trial","s","img/Fire_Up_Target.gif","[""img/Fire_Down_Distractor.gif"",""img/Fire_Down_Distractor.gif"",""img/Fire_Down_Distractor.gif"",""img/Fire_Down_Distractor.gif"",""img/Fire_Down_Distractor.gif"",""img/Fire_Down_Distractor.gif"",""img/Fire_Down_Distractor.gif"",""img/Fire_Down_Distractor.gif"",""img/Fire_Down_Distractor.gif"",""img/Fire_Down_Distractor.gif"",""img/Fire_Down_Distractor.gif"",""img/Fire_Down_Distractor.gif""]","8","targetUp_distractorsDown"
"","","","","","html-keyboard-response","152","358450","0.0-14.0-0.0-0.69","5f37dc3b4e588b26d099ceac","619531dcf66c91622fa1b861","619595f6f4924c7d4f95951b","null","","null","","","","","main_T1_ITI","","","","",""
"","","","","","visual-search-circle","153","360633","0.0-14.0-0.0-1.69","5f37dc3b4e588b26d099ceac","619531dcf66c91622fa1b861","619595f6f4924c7d4f95951b","1183","","d","true","[[591,372],[557,145],[372,8],[145,42],[8,227],[42,454],[227,591],[454,557]]","true","8","main_T2_Trial","d","img/Fire_Down_Target.gif","[""img/Fire_Up_Distractor.gif"",""img/Fire_Up_Distractor.gif"",""img/Fire_Up_Distractor.gif"",""img/Fire_Up_Distractor.gif"",""img/Fire_Up_Distractor.gif"",""img/Fire_Up_Distractor.gif"",""img/Fire_Up_Distractor.gif"",""img/Fire_Up_Distractor.gif"",""img/Fire_Up_Distractor.gif"",""img/Fire_Up_Distractor.gif"",""img/Fire_Up_Distractor.gif"",""img/Fire_Up_Distractor.gif""]","8","targetDown_distractorsUp"
"","","","","","html-keyboard-response","154","360633","0.0-14.0-0.0-0.70","5f37dc3b4e588b26d099ceac","619531dcf66c91622fa1b861","619595f6f4924c7d4f95951b","null","","null","","","","","main_T1_ITI","","","","",""
"","","","","","visual-search-circle","155","365475","0.0-14.0-0.0-1.70","5f37dc3b4e588b26d099ceac","619531dcf66c91622fa1b861","619595f6f4924c7d4f95951b","3830","","s","false","[[599,279],[431,30],[132,51],[0,320],[168,569],[467,548]]","true","6","main_T2_Trial","d","img/Fire_Up_Target.gif","[""img/Fire_Down_Distractor.gif"",""img/Fire_Down_Distractor.gif"",""img/Fire_Down_Distractor.gif"",""img/Fire_Down_Distractor.gif"",""img/Fire_Down_Distractor.gif"",""img/Fire_Down_Distractor.gif"",""img/Fire_Down_Distractor.gif"",""img/Fire_Down_Distractor.gif"",""img/Fire_Down_Distractor.gif"",""img/Fire_Down_Distractor.gif"",""img/Fire_Down_Distractor.gif"",""img/Fire_Down_Distractor.gif""]","6","targetUp_distractorsDown"
"","","","","","html-keyboard-response","156","365476","0.0-14.0-0.0-0.71","5f37dc3b4e588b26d099ceac","619531dcf66c91622fa1b861","619595f6f4924c7d4f95951b","null","","null","","","","","main_T1_ITI","","","","",""
"","","","","","visual-search-circle","157","371860","0.0-14.0-0.0-1.71","5f37dc3b4e588b26d099ceac","619531dcf66c91622fa1b861","619595f6f4924c7d4f95951b","5379","","d","true","[[11,382],[184,577],[444,562],[595,350],[523,100],[283,0],[55,126]]","true","7","main_T2_Trial","d","img/Fire_Up_Target.gif","[""img/Fire_Down_Distractor.gif"",""img/Fire_Down_Distractor.gif"",""img/Fire_Down_Distractor.gif"",""img/Fire_Down_Distractor.gif"",""img/Fire_Down_Distractor.gif"",""img/Fire_Down_Distractor.gif"",""img/Fire_Down_Distractor.gif"",""img/Fire_Down_Distractor.gif"",""img/Fire_Down_Distractor.gif"",""img/Fire_Down_Distractor.gif"",""img/Fire_Down_Distractor.gif"",""img/Fire_Down_Distractor.gif""]","7","targetUp_distractorsDown"
"","","","","","html-keyboard-response","158","371860","0.0-14.0-0.0-0.72","5f37dc3b4e588b26d099ceac","619531dcf66c91622fa1b861","619595f6f4924c7d4f95951b","null","","null","","","","","main_T1_ITI","","","","",""
"","","","","","visual-search-circle","159","377157","0.0-14.0-0.0-1.72","5f37dc3b4e588b26d099ceac","619531dcf66c91622fa1b861","619595f6f4924c7d4f95951b","4289","","d","true","[[445,562],[594,242],[336,2],[28,173],[95,519]]","true","5","main_T2_Trial","d","img/Fire_Down_Target.gif","[""img/Fire_Up_Distractor.gif"",""img/Fire_Up_Distractor.gif"",""img/Fire_Up_Distractor.gif"",""img/Fire_Up_Distractor.gif"",""img/Fire_Up_Distractor.gif"",""img/Fire_Up_Distractor.gif"",""img/Fire_Up_Distractor.gif"",""img/Fire_Up_Distractor.gif"",""img/Fire_Up_Distractor.gif"",""img/Fire_Up_Distractor.gif"",""img/Fire_Up_Distractor.gif"",""img/Fire_Up_Distractor.gif""]","5","targetDown_distractorsUp"
"","","","","","html-keyboard-response","160","377157","0.0-14.0-0.0-0.73","5f37dc3b4e588b26d099ceac","619531dcf66c91622fa1b861","619595f6f4924c7d4f95951b","null","","null","","","","","main_T1_ITI","","","","",""
"","","","","","visual-search-circle","161","379181","0.0-14.0-0.0-1.73","5f37dc3b4e588b26d099ceac","619531dcf66c91622fa1b861","619595f6f4924c7d4f95951b","1009","","s","true","[[310,599],[588,382],[467,51],[115,63],[18,402]]","false","5","main_T2_Trial","s","img/Fire_Down_Target.gif","[""img/Fire_Up_Distractor.gif"",""img/Fire_Up_Distractor.gif"",""img/Fire_Up_Distractor.gif"",""img/Fire_Up_Distractor.gif"",""img/Fire_Up_Distractor.gif"",""img/Fire_Up_Distractor.gif"",""img/Fire_Up_Distractor.gif"",""img/Fire_Up_Distractor.gif"",""img/Fire_Up_Distractor.gif"",""img/Fire_Up_Distractor.gif"",""img/Fire_Up_Distractor.gif"",""img/Fire_Up_Distractor.gif""]","5","targetDown_distractorsUp"
"","","","","","html-keyboard-response","162","379182","0.0-14.0-0.0-0.74","5f37dc3b4e588b26d099ceac","619531dcf66c91622fa1b861","619595f6f4924c7d4f95951b","null","","null","","","","","main_T1_ITI","","","","",""
"","","","","","visual-search-circle","163","381182","0.0-14.0-0.0-1.74","5f37dc3b4e588b26d099ceac","619531dcf66c91622fa1b861","619595f6f4924c7d4f95951b","984","","d","true","[[559,450],[589,222],[449,40],[222,10],[40,150],[10,377],[150,559],[377,589]]","true","8","main_T2_Trial","d","img/Fire_Down_Target.gif","[""img/Fire_Up_Distractor.gif"",""img/Fire_Up_Distractor.gif"",""img/Fire_Up_Distractor.gif"",""img/Fire_Up_Distractor.gif"",""img/Fire_Up_Distractor.gif"",""img/Fire_Up_Distractor.gif"",""img/Fire_Up_Distractor.gif"",""img/Fire_Up_Distractor.gif"",""img/Fire_Up_Distractor.gif"",""img/Fire_Up_Distractor.gif"",""img/Fire_Up_Distractor.gif"",""img/Fire_Up_Distractor.gif""]","8","targetDown_distractorsUp"
"","","","","","html-keyboard-response","164","381182","0.0-14.0-0.0-0.75","5f37dc3b4e588b26d099ceac","619531dcf66c91622fa1b861","619595f6f4924c7d4f95951b","null","","null","","","","","main_T1_ITI","","","","",""
"","","","","","visual-search-circle","165","387239","0.0-14.0-0.0-1.75","5f37dc3b4e588b26d099ceac","619531dcf66c91622fa1b861","619595f6f4924c7d4f95951b","5043","","s","true","[[526,103],[103,73],[73,496],[496,526]]","false","4","main_T2_Trial","s","img/Fire_Up_Target.gif","[""img/Fire_Down_Distractor.gif"",""img/Fire_Down_Distractor.gif"",""img/Fire_Down_Distractor.gif"",""img/Fire_Down_Distractor.gif"",""img/Fire_Down_Distractor.gif"",""img/Fire_Down_Distractor.gif"",""img/Fire_Down_Distractor.gif"",""img/Fire_Down_Distractor.gif"",""img/Fire_Down_Distractor.gif"",""img/Fire_Down_Distractor.gif"",""img/Fire_Down_Distractor.gif"",""img/Fire_Down_Distractor.gif""]","4","targetUp_distractorsDown"
"","","","","","html-keyboard-response","166","387239","0.0-14.0-0.0-0.76","5f37dc3b4e588b26d099ceac","619531dcf66c91622fa1b861","619595f6f4924c7d4f95951b","null","","null","","","","","main_T1_ITI","","","","",""
"","","","","","visual-search-circle","167","389702","0.0-14.0-0.0-1.76","5f37dc3b4e588b26d099ceac","619531dcf66c91622fa1b861","619595f6f4924c7d4f95951b","1459","","d","true","[[422,25],[77,99],[40,450],[362,593],[598,331]]","true","5","main_T2_Trial","d","img/Fire_Down_Target.gif","[""img/Fire_Up_Distractor.gif"",""img/Fire_Up_Distractor.gif"",""img/Fire_Up_Distractor.gif"",""img/Fire_Up_Distractor.gif"",""img/Fire_Up_Distractor.gif"",""img/Fire_Up_Distractor.gif"",""img/Fire_Up_Distractor.gif"",""img/Fire_Up_Distractor.gif"",""img/Fire_Up_Distractor.gif"",""img/Fire_Up_Distractor.gif"",""img/Fire_Up_Distractor.gif"",""img/Fire_Up_Distractor.gif""]","5","targetDown_distractorsUp"
"","","","","","html-keyboard-response","168","389702","0.0-14.0-0.0-0.77","5f37dc3b4e588b26d099ceac","619531dcf66c91622fa1b861","619595f6f4924c7d4f95951b","null","","null","","","","","main_T1_ITI","","","","",""
"","","","","","visual-search-circle","169","393552","0.0-14.0-0.0-1.77","5f37dc3b4e588b26d099ceac","619531dcf66c91622fa1b861","619595f6f4924c7d4f95951b","2848","","d","true","[[127,54],[4,247],[54,472],[247,595],[472,545],[595,352],[545,127],[352,4]]","true","8","main_T2_Trial","d","img/Fire_Up_Target.gif","[""img/Fire_Down_Distractor.gif"",""img/Fire_Down_Distractor.gif"",""img/Fire_Down_Distractor.gif"",""img/Fire_Down_Distractor.gif"",""img/Fire_Down_Distractor.gif"",""img/Fire_Down_Distractor.gif"",""img/Fire_Down_Distractor.gif"",""img/Fire_Down_Distractor.gif"",""img/Fire_Down_Distractor.gif"",""img/Fire_Down_Distractor.gif"",""img/Fire_Down_Distractor.gif"",""img/Fire_Down_Distractor.gif""]","8","targetUp_distractorsDown"
"","","","","","html-keyboard-response","170","393552","0.0-14.0-0.0-0.78","5f37dc3b4e588b26d099ceac","619531dcf66c91622fa1b861","619595f6f4924c7d4f95951b","null","","null","","","","","main_T1_ITI","","","","",""
"","","","","","visual-search-circle","171","397727","0.0-14.0-0.0-1.78","5f37dc3b4e588b26d099ceac","619531dcf66c91622fa1b861","619595f6f4924c7d4f95951b","3167","","s","true","[[585,207],[362,6],[77,99],[14,392],[237,593],[522,500]]","false","6","main_T2_Trial","s","img/Fire_Down_Target.gif","[""img/Fire_Up_Distractor.gif"",""img/Fire_Up_Distractor.gif"",""img/Fire_Up_Distractor.gif"",""img/Fire_Up_Distractor.gif"",""img/Fire_Up_Distractor.gif"",""img/Fire_Up_Distractor.gif"",""img/Fire_Up_Distractor.gif"",""img/Fire_Up_Distractor.gif"",""img/Fire_Up_Distractor.gif"",""img/Fire_Up_Distractor.gif"",""img/Fire_Up_Distractor.gif"",""img/Fire_Up_Distractor.gif""]","6","targetDown_distractorsUp"
"","","","","","html-keyboard-response","172","399095","0.0-14.0-0.0-0.79","5f37dc3b4e588b26d099ceac","619531dcf66c91622fa1b861","619595f6f4924c7d4f95951b","1368","Wow! You've completed 80 out of 160 trials! </p> <p>  </p><p> Take a quick break, then press any key when you're ready to continue."," ","","","","","main_T1_ITI","","","","",""
"","","","","","visual-search-circle","173","402367","0.0-14.0-0.0-1.79","5f37dc3b4e588b26d099ceac","619531dcf66c91622fa1b861","619595f6f4924c7d4f95951b","2261","","s","true","[[87,87],[1,333],[140,554],[399,583],[583,399],[554,140],[333,1]]","false","7","main_T2_Trial","s","img/Fire_Down_Target.gif","[""img/Fire_Up_Distractor.gif"",""img/Fire_Up_Distractor.gif"",""img/Fire_Up_Distractor.gif"",""img/Fire_Up_Distractor.gif"",""img/Fire_Up_Distractor.gif"",""img/Fire_Up_Distractor.gif"",""img/Fire_Up_Distractor.gif"",""img/Fire_Up_Distractor.gif"",""img/Fire_Up_Distractor.gif"",""img/Fire_Up_Distractor.gif"",""img/Fire_Up_Distractor.gif"",""img/Fire_Up_Distractor.gif""]","7","targetDown_distractorsUp"
"","","","","","html-keyboard-response","174","402368","0.0-14.0-0.0-0.80","5f37dc3b4e588b26d099ceac","619531dcf66c91622fa1b861","619595f6f4924c7d4f95951b","null","","null","","","","","main_T1_ITI","","","","",""
"","","","","","visual-search-circle","175","405761","0.0-14.0-0.0-1.80","5f37dc3b4e588b26d099ceac","619531dcf66c91622fa1b861","619595f6f4924c7d4f95951b","2380","","s","true","[[496,526],[594,242],[397,16],[103,73],[5,357],[202,583]]","false","6","main_T2_Trial","s","img/Fire_Down_Target.gif","[""img/Fire_Up_Distractor.gif"",""img/Fire_Up_Distractor.gif"",""img/Fire_Up_Distractor.gif"",""img/Fire_Up_Distractor.gif"",""img/Fire_Up_Distractor.gif"",""img/Fire_Up_Distractor.gif"",""img/Fire_Up_Distractor.gif"",""img/Fire_Up_Distractor.gif"",""img/Fire_Up_Distractor.gif"",""img/Fire_Up_Distractor.gif"",""img/Fire_Up_Distractor.gif"",""img/Fire_Up_Distractor.gif""]","6","targetDown_distractorsUp"
"","","","","","html-keyboard-response","176","405761","0.0-14.0-0.0-0.81","5f37dc3b4e588b26d099ceac","619531dcf66c91622fa1b861","619595f6f4924c7d4f95951b","null","","null","","","","","main_T1_ITI","","","","",""
"","","","","","visual-search-circle","177","409665","0.0-14.0-0.0-1.81","5f37dc3b4e588b26d099ceac","619531dcf66c91622fa1b861","619595f6f4924c7d4f95951b","2889","","s","true","[[18,402],[247,595],[529,492],[581,197],[352,4],[70,107]]","false","6","main_T2_Trial","s","img/Fire_Down_Target.gif","[""img/Fire_Up_Distractor.gif"",""img/Fire_Up_Distractor.gif"",""img/Fire_Up_Distractor.gif"",""img/Fire_Up_Distractor.gif"",""img/Fire_Up_Distractor.gif"",""img/Fire_Up_Distractor.gif"",""img/Fire_Up_Distractor.gif"",""img/Fire_Up_Distractor.gif"",""img/Fire_Up_Distractor.gif"",""img/Fire_Up_Distractor.gif"",""img/Fire_Up_Distractor.gif"",""img/Fire_Up_Distractor.gif""]","6","targetDown_distractorsUp"
"","","","","","html-keyboard-response","178","409665","0.0-14.0-0.0-0.82","5f37dc3b4e588b26d099ceac","619531dcf66c91622fa1b861","619595f6f4924c7d4f95951b","null","","null","","","","","main_T1_ITI","","","","",""
"","","","","","visual-search-circle","179","411489","0.0-14.0-0.0-1.82","5f37dc3b4e588b26d099ceac","619531dcf66c91622fa1b861","619595f6f4924c7d4f95951b","817","","d","true","[[16,202],[73,496],[357,594],[583,397],[526,103],[242,5]]","true","6","main_T2_Trial","d","img/Fire_Down_Target.gif","[""img/Fire_Up_Distractor.gif"",""img/Fire_Up_Distractor.gif"",""img/Fire_Up_Distractor.gif"",""img/Fire_Up_Distractor.gif"",""img/Fire_Up_Distractor.gif"",""img/Fire_Up_Distractor.gif"",""img/Fire_Up_Distractor.gif"",""img/Fire_Up_Distractor.gif"",""img/Fire_Up_Distractor.gif"",""img/Fire_Up_Distractor.gif"",""img/Fire_Up_Distractor.gif"",""img/Fire_Up_Distractor.gif""]","6","targetDown_distractorsUp"
"","","","","","html-keyboard-response","180","411489","0.0-14.0-0.0-0.83","5f37dc3b4e588b26d099ceac","619531dcf66c91622fa1b861","619595f6f4924c7d4f95951b","null","","null","","","","","main_T1_ITI","","","","",""
"","","","","","visual-search-circle","181","414073","0.0-14.0-0.0-1.83","5f37dc3b4e588b26d099ceac","619531dcf66c91622fa1b861","619595f6f4924c7d4f95951b","1575","","s","true","[[536,484],[597,263],[484,63],[263,2],[63,115],[2,336],[115,536],[336,597]]","false","8","main_T2_Trial","s","img/Fire_Up_Target.gif","[""img/Fire_Down_Distractor.gif"",""img/Fire_Down_Distractor.gif"",""img/Fire_Down_Distractor.gif"",""img/Fire_Down_Distractor.gif"",""img/Fire_Down_Distractor.gif"",""img/Fire_Down_Distractor.gif"",""img/Fire_Down_Distractor.gif"",""img/Fire_Down_Distractor.gif"",""img/Fire_Down_Distractor.gif"",""img/Fire_Down_Distractor.gif"",""img/Fire_Down_Distractor.gif"",""img/Fire_Down_Distractor.gif""]","8","targetUp_distractorsDown"
"","","","","","html-keyboard-response","182","414074","0.0-14.0-0.0-0.84","5f37dc3b4e588b26d099ceac","619531dcf66c91622fa1b861","619595f6f4924c7d4f95951b","null","","null","","","","","main_T1_ITI","","","","",""
"","","","","","visual-search-circle","183","416985","0.0-14.0-0.0-1.84","5f37dc3b4e588b26d099ceac","619531dcf66c91622fa1b861","619595f6f4924c7d4f95951b","1900","","s","true","[[77,500],[317,599],[545,472],[587,215],[413,22],[153,37],[4,250]]","false","7","main_T2_Trial","s","img/Fire_Down_Target.gif","[""img/Fire_Up_Distractor.gif"",""img/Fire_Up_Distractor.gif"",""img/Fire_Up_Distractor.gif"",""img/Fire_Up_Distractor.gif"",""img/Fire_Up_Distractor.gif"",""img/Fire_Up_Distractor.gif"",""img/Fire_Up_Distractor.gif"",""img/Fire_Up_Distractor.gif"",""img/Fire_Up_Distractor.gif"",""img/Fire_Up_Distractor.gif"",""img/Fire_Up_Distractor.gif"",""img/Fire_Up_Distractor.gif""]","7","targetDown_distractorsUp"
"","","","","","html-keyboard-response","184","416986","0.0-14.0-0.0-0.85","5f37dc3b4e588b26d099ceac","619531dcf66c91622fa1b861","619595f6f4924c7d4f95951b","null","","null","","","","","main_T1_ITI","","","","",""
"","","","","","visual-search-circle","185","419722","0.0-14.0-0.0-1.85","5f37dc3b4e588b26d099ceac","619531dcf66c91622fa1b861","619595f6f4924c7d4f95951b","1729","","d","true","[[279,599],[599,320],[320,0],[0,279]]","true","4","main_T2_Trial","d","img/Fire_Up_Target.gif","[""img/Fire_Down_Distractor.gif"",""img/Fire_Down_Distractor.gif"",""img/Fire_Down_Distractor.gif"",""img/Fire_Down_Distractor.gif"",""img/Fire_Down_Distractor.gif"",""img/Fire_Down_Distractor.gif"",""img/Fire_Down_Distractor.gif"",""img/Fire_Down_Distractor.gif"",""img/Fire_Down_Distractor.gif"",""img/Fire_Down_Distractor.gif"",""img/Fire_Down_Distractor.gif"",""img/Fire_Down_Distractor.gif""]","4","targetUp_distractorsDown"
"","","","","","html-keyboard-response","186","419722","0.0-14.0-0.0-0.86","5f37dc3b4e588b26d099ceac","619531dcf66c91622fa1b861","619595f6f4924c7d4f95951b","null","","null","","","","","main_T1_ITI","","","","",""
"","","","","","visual-search-circle","187","424036","0.0-14.0-0.0-1.86","5f37dc3b4e588b26d099ceac","619531dcf66c91622fa1b861","619595f6f4924c7d4f95951b","3304","","d","true","[[182,576],[526,496],[557,145],[232,7],[1,273]]","true","5","main_T2_Trial","d","img/Fire_Up_Target.gif","[""img/Fire_Down_Distractor.gif"",""img/Fire_Down_Distractor.gif"",""img/Fire_Down_Distractor.gif"",""img/Fire_Down_Distractor.gif"",""img/Fire_Down_Distractor.gif"",""img/Fire_Down_Distractor.gif"",""img/Fire_Down_Distractor.gif"",""img/Fire_Down_Distractor.gif"",""img/Fire_Down_Distractor.gif"",""img/Fire_Down_Distractor.gif"",""img/Fire_Down_Distractor.gif"",""img/Fire_Down_Distractor.gif""]","5","targetUp_distractorsDown"
"","","","","","html-keyboard-response","188","424036","0.0-14.0-0.0-0.87","5f37dc3b4e588b26d099ceac","619531dcf66c91622fa1b861","619595f6f4924c7d4f95951b","null","","null","","","","","main_T1_ITI","","","","",""
"","","","","","visual-search-circle","189","427747","0.0-14.0-0.0-1.87","5f37dc3b4e588b26d099ceac","619531dcf66c91622fa1b861","619595f6f4924c7d4f95951b","2700","","s","true","[[42,145],[73,496],[417,576],[598,273],[367,7]]","false","5","main_T2_Trial","s","img/Fire_Up_Target.gif","[""img/Fire_Down_Distractor.gif"",""img/Fire_Down_Distractor.gif"",""img/Fire_Down_Distractor.gif"",""img/Fire_Down_Distractor.gif"",""img/Fire_Down_Distractor.gif"",""img/Fire_Down_Distractor.gif"",""img/Fire_Down_Distractor.gif"",""img/Fire_Down_Distractor.gif"",""img/Fire_Down_Distractor.gif"",""img/Fire_Down_Distractor.gif"",""img/Fire_Down_Distractor.gif"",""img/Fire_Down_Distractor.gif""]","5","targetUp_distractorsDown"
"","","","","","html-keyboard-response","190","427747","0.0-14.0-0.0-0.88","5f37dc3b4e588b26d099ceac","619531dcf66c91622fa1b861","619595f6f4924c7d4f95951b","null","","null","","","","","main_T1_ITI","","","","",""
"","","","","","visual-search-circle","191","435454","0.0-14.0-0.0-1.88","5f37dc3b4e588b26d099ceac","619531dcf66c91622fa1b861","619595f6f4924c7d4f95951b","6695","","d","true","[[150,40],[0,299],[149,559],[450,559],[600,300],[449,40]]","true","6","main_T2_Trial","d","img/Fire_Up_Target.gif","[""img/Fire_Down_Distractor.gif"",""img/Fire_Down_Distractor.gif"",""img/Fire_Down_Distractor.gif"",""img/Fire_Down_Distractor.gif"",""img/Fire_Down_Distractor.gif"",""img/Fire_Down_Distractor.gif"",""img/Fire_Down_Distractor.gif"",""img/Fire_Down_Distractor.gif"",""img/Fire_Down_Distractor.gif"",""img/Fire_Down_Distractor.gif"",""img/Fire_Down_Distractor.gif"",""img/Fire_Down_Distractor.gif""]","6","targetUp_distractorsDown"
"","","","","","html-keyboard-response","192","435454","0.0-14.0-0.0-0.89","5f37dc3b4e588b26d099ceac","619531dcf66c91622fa1b861","619595f6f4924c7d4f95951b","null","","null","","","","","main_T1_ITI","","","","",""
"","","","","","visual-search-circle","193","437989","0.0-14.0-0.0-1.89","5f37dc3b4e588b26d099ceac","619531dcf66c91622fa1b861","619595f6f4924c7d4f95951b","1531","","d","true","[[576,417],[539,119],[263,2],[23,182],[60,480],[336,597]]","true","6","main_T2_Trial","d","img/Fire_Down_Target.gif","[""img/Fire_Up_Distractor.gif"",""img/Fire_Up_Distractor.gif"",""img/Fire_Up_Distractor.gif"",""img/Fire_Up_Distractor.gif"",""img/Fire_Up_Distractor.gif"",""img/Fire_Up_Distractor.gif"",""img/Fire_Up_Distractor.gif"",""img/Fire_Up_Distractor.gif"",""img/Fire_Up_Distractor.gif"",""img/Fire_Up_Distractor.gif"",""img/Fire_Up_Distractor.gif"",""img/Fire_Up_Distractor.gif""]","6","targetDown_distractorsUp"
"","","","","","html-keyboard-response","194","437989","0.0-14.0-0.0-0.90","5f37dc3b4e588b26d099ceac","619531dcf66c91622fa1b861","619595f6f4924c7d4f95951b","null","","null","","","","","main_T1_ITI","","","","",""
"","","","","","visual-search-circle","195","440742","0.0-14.0-0.0-1.90","5f37dc3b4e588b26d099ceac","619531dcf66c91622fa1b861","619595f6f4924c7d4f95951b","1738","","d","true","[[588,217],[415,22],[155,37],[4,249],[76,499],[316,599],[544,473]]","true","7","main_T2_Trial","d","img/Fire_Down_Target.gif","[""img/Fire_Up_Distractor.gif"",""img/Fire_Up_Distractor.gif"",""img/Fire_Up_Distractor.gif"",""img/Fire_Up_Distractor.gif"",""img/Fire_Up_Distractor.gif"",""img/Fire_Up_Distractor.gif"",""img/Fire_Up_Distractor.gif"",""img/Fire_Up_Distractor.gif"",""img/Fire_Up_Distractor.gif"",""img/Fire_Up_Distractor.gif"",""img/Fire_Up_Distractor.gif"",""img/Fire_Up_Distractor.gif""]","7","targetDown_distractorsUp"
"","","","","","html-keyboard-response","196","440742","0.0-14.0-0.0-0.91","5f37dc3b4e588b26d099ceac","619531dcf66c91622fa1b861","619595f6f4924c7d4f95951b","null","","null","","","","","main_T1_ITI","","","","",""
"","","","","","visual-search-circle","197","443511","0.0-14.0-0.0-1.91","5f37dc3b4e588b26d099ceac","619531dcf66c91622fa1b861","619595f6f4924c7d4f95951b","1760","","s","true","[[567,163],[253,3],[3,253],[163,567],[512,512]]","false","5","main_T2_Trial","s","img/Fire_Down_Target.gif","[""img/Fire_Up_Distractor.gif"",""img/Fire_Up_Distractor.gif"",""img/Fire_Up_Distractor.gif"",""img/Fire_Up_Distractor.gif"",""img/Fire_Up_Distractor.gif"",""img/Fire_Up_Distractor.gif"",""img/Fire_Up_Distractor.gif"",""img/Fire_Up_Distractor.gif"",""img/Fire_Up_Distractor.gif"",""img/Fire_Up_Distractor.gif"",""img/Fire_Up_Distractor.gif"",""img/Fire_Up_Distractor.gif""]","5","targetDown_distractorsUp"
"","","","","","html-keyboard-response","198","443511","0.0-14.0-0.0-0.92","5f37dc3b4e588b26d099ceac","619531dcf66c91622fa1b861","619595f6f4924c7d4f95951b","null","","null","","","","","main_T1_ITI","","","","",""
"","","","","","visual-search-circle","199","447542","0.0-14.0-0.0-1.92","5f37dc3b4e588b26d099ceac","619531dcf66c91622fa1b861","619595f6f4924c7d4f95951b","3025","","s","true","[[320,599],[569,431],[548,132],[279,0],[30,168],[51,467]]","false","6","main_T2_Trial","s","img/Fire_Up_Target.gif","[""img/Fire_Down_Distractor.gif"",""img/Fire_Down_Distractor.gif"",""img/Fire_Down_Distractor.gif"",""img/Fire_Down_Distractor.gif"",""img/Fire_Down_Distractor.gif"",""img/Fire_Down_Distractor.gif"",""img/Fire_Down_Distractor.gif"",""img/Fire_Down_Distractor.gif"",""img/Fire_Down_Distractor.gif"",""img/Fire_Down_Distractor.gif"",""img/Fire_Down_Distractor.gif"",""img/Fire_Down_Distractor.gif""]","6","targetUp_distractorsDown"
"","","","","","html-keyboard-response","200","447542","0.0-14.0-0.0-0.93","5f37dc3b4e588b26d099ceac","619531dcf66c91622fa1b861","619595f6f4924c7d4f95951b","null","","null","","","","","main_T1_ITI","","","","",""
"","","","","","visual-search-circle","201","449781","0.0-14.0-0.0-1.93","5f37dc3b4e588b26d099ceac","619531dcf66c91622fa1b861","619595f6f4924c7d4f95951b","1236","","s","true","[[294,599],[531,491],[593,238],[434,32],[174,27],[8,228],[62,482]]","false","7","main_T2_Trial","s","img/Fire_Down_Target.gif","[""img/Fire_Up_Distractor.gif"",""img/Fire_Up_Distractor.gif"",""img/Fire_Up_Distractor.gif"",""img/Fire_Up_Distractor.gif"",""img/Fire_Up_Distractor.gif"",""img/Fire_Up_Distractor.gif"",""img/Fire_Up_Distractor.gif"",""img/Fire_Up_Distractor.gif"",""img/Fire_Up_Distractor.gif"",""img/Fire_Up_Distractor.gif"",""img/Fire_Up_Distractor.gif"",""img/Fire_Up_Distractor.gif""]","7","targetDown_distractorsUp"
"","","","","","html-keyboard-response","202","449782","0.0-14.0-0.0-0.94","5f37dc3b4e588b26d099ceac","619531dcf66c91622fa1b861","619595f6f4924c7d4f95951b","null","","null","","","","","main_T1_ITI","","","","",""
"","","","","","visual-search-circle","203","455064","0.0-14.0-0.0-1.94","5f37dc3b4e588b26d099ceac","619531dcf66c91622fa1b861","619595f6f4924c7d4f95951b","4271","","s","true","[[66,488],[488,533],[533,111],[111,66]]","false","4","main_T2_Trial","s","img/Fire_Up_Target.gif","[""img/Fire_Down_Distractor.gif"",""img/Fire_Down_Distractor.gif"",""img/Fire_Down_Distractor.gif"",""img/Fire_Down_Distractor.gif"",""img/Fire_Down_Distractor.gif"",""img/Fire_Down_Distractor.gif"",""img/Fire_Down_Distractor.gif"",""img/Fire_Down_Distractor.gif"",""img/Fire_Down_Distractor.gif"",""img/Fire_Down_Distractor.gif"",""img/Fire_Down_Distractor.gif"",""img/Fire_Down_Distractor.gif""]","4","targetUp_distractorsDown"
"","","","","","html-keyboard-response","204","455064","0.0-14.0-0.0-0.95","5f37dc3b4e588b26d099ceac","619531dcf66c91622fa1b861","619595f6f4924c7d4f95951b","null","","null","","","","","main_T1_ITI","","","","",""
"","","","","","visual-search-circle","205","458904","0.0-14.0-0.0-1.95","5f37dc3b4e588b26d099ceac","619531dcf66c91622fa1b861","619595f6f4924c7d4f95951b","2837","","s","true","[[99,522],[522,500],[500,77],[77,99]]","false","4","main_T2_Trial","s","img/Fire_Down_Target.gif","[""img/Fire_Up_Distractor.gif"",""img/Fire_Up_Distractor.gif"",""img/Fire_Up_Distractor.gif"",""img/Fire_Up_Distractor.gif"",""img/Fire_Up_Distractor.gif"",""img/Fire_Up_Distractor.gif"",""img/Fire_Up_Distractor.gif"",""img/Fire_Up_Distractor.gif"",""img/Fire_Up_Distractor.gif"",""img/Fire_Up_Distractor.gif"",""img/Fire_Up_Distractor.gif"",""img/Fire_Up_Distractor.gif""]","4","targetDown_distractorsUp"
"","","","","","html-keyboard-response","206","458904","0.0-14.0-0.0-0.96","5f37dc3b4e588b26d099ceac","619531dcf66c91622fa1b861","619595f6f4924c7d4f95951b","null","","null","","","","","main_T1_ITI","","","","",""
"","","","","","visual-search-circle","207","461952","0.0-14.0-0.0-1.96","5f37dc3b4e588b26d099ceac","619531dcf66c91622fa1b861","619595f6f4924c7d4f95951b","2035","","s","true","[[559,150],[377,10],[150,40],[10,222],[40,450],[222,589],[450,559],[589,377]]","false","8","main_T2_Trial","s","img/Fire_Up_Target.gif","[""img/Fire_Down_Distractor.gif"",""img/Fire_Down_Distractor.gif"",""img/Fire_Down_Distractor.gif"",""img/Fire_Down_Distractor.gif"",""img/Fire_Down_Distractor.gif"",""img/Fire_Down_Distractor.gif"",""img/Fire_Down_Distractor.gif"",""img/Fire_Down_Distractor.gif"",""img/Fire_Down_Distractor.gif"",""img/Fire_Down_Distractor.gif"",""img/Fire_Down_Distractor.gif"",""img/Fire_Down_Distractor.gif""]","8","targetUp_distractorsDown"
"","","","","","html-keyboard-response","208","461952","0.0-14.0-0.0-0.97","5f37dc3b4e588b26d099ceac","619531dcf66c91622fa1b861","619595f6f4924c7d4f95951b","null","","null","","","","","main_T1_ITI","","","","",""
"","","","","","visual-search-circle","209","465087","0.0-14.0-0.0-1.97","5f37dc3b4e588b26d099ceac","619531dcf66c91622fa1b861","619595f6f4924c7d4f95951b","2124","","s","true","[[336,597],[555,457],[582,198],[396,15],[137,47],[1,269],[89,514]]","false","7","main_T2_Trial","s","img/Fire_Up_Target.gif","[""img/Fire_Down_Distractor.gif"",""img/Fire_Down_Distractor.gif"",""img/Fire_Down_Distractor.gif"",""img/Fire_Down_Distractor.gif"",""img/Fire_Down_Distractor.gif"",""img/Fire_Down_Distractor.gif"",""img/Fire_Down_Distractor.gif"",""img/Fire_Down_Distractor.gif"",""img/Fire_Down_Distractor.gif"",""img/Fire_Down_Distractor.gif"",""img/Fire_Down_Distractor.gif"",""img/Fire_Down_Distractor.gif""]","7","targetUp_distractorsDown"
"","","","","","html-keyboard-response","210","465088","0.0-14.0-0.0-0.98","5f37dc3b4e588b26d099ceac","619531dcf66c91622fa1b861","619595f6f4924c7d4f95951b","null","","null","","","","","main_T1_ITI","","","","",""
"","","","","","visual-search-circle","211","468889","0.0-14.0-0.0-1.98","5f37dc3b4e588b26d099ceac","619531dcf66c91622fa1b861","619595f6f4924c7d4f95951b","2801","","s","true","[[273,598],[576,417],[496,73],[145,42],[7,367]]","false","5","main_T2_Trial","s","img/Fire_Up_Target.gif","[""img/Fire_Down_Distractor.gif"",""img/Fire_Down_Distractor.gif"",""img/Fire_Down_Distractor.gif"",""img/Fire_Down_Distractor.gif"",""img/Fire_Down_Distractor.gif"",""img/Fire_Down_Distractor.gif"",""img/Fire_Down_Distractor.gif"",""img/Fire_Down_Distractor.gif"",""img/Fire_Down_Distractor.gif"",""img/Fire_Down_Distractor.gif"",""img/Fire_Down_Distractor.gif"",""img/Fire_Down_Distractor.gif""]","5","targetUp_distractorsDown"
"","","","","","html-keyboard-response","212","470049","0.0-14.0-0.0-0.99","5f37dc3b4e588b26d099ceac","619531dcf66c91622fa1b861","619595f6f4924c7d4f95951b","1159","Wow! You've completed 100 out of 160 trials! </p> <p>  </p><p> Take a quick break, then press any key when you're ready to continue."," ","","","","","main_T1_ITI","","","","",""
"","","","","","visual-search-circle","213","473829","0.0-14.0-0.0-1.99","5f37dc3b4e588b26d099ceac","619531dcf66c91622fa1b861","619595f6f4924c7d4f95951b","2773","","s","true","[[574,177],[375,9],[120,59],[0,291],[106,528],[357,594],[566,438]]","false","7","main_T2_Trial","s","img/Fire_Up_Target.gif","[""img/Fire_Down_Distractor.gif"",""img/Fire_Down_Distractor.gif"",""img/Fire_Down_Distractor.gif"",""img/Fire_Down_Distractor.gif"",""img/Fire_Down_Distractor.gif"",""img/Fire_Down_Distractor.gif"",""img/Fire_Down_Distractor.gif"",""img/Fire_Down_Distractor.gif"",""img/Fire_Down_Distractor.gif"",""img/Fire_Down_Distractor.gif"",""img/Fire_Down_Distractor.gif"",""img/Fire_Down_Distractor.gif""]","7","targetUp_distractorsDown"
"","","","","","html-keyboard-response","214","473830","0.0-14.0-0.0-0.100","5f37dc3b4e588b26d099ceac","619531dcf66c91622fa1b861","619595f6f4924c7d4f95951b","null","","null","","","","","main_T1_ITI","","","","",""
"","","","","","visual-search-circle","215","475630","0.0-14.0-0.0-1.100","5f37dc3b4e588b26d099ceac","619531dcf66c91622fa1b861","619595f6f4924c7d4f95951b","790","","d","true","[[25,177],[19,407],[177,574],[407,580],[574,422],[580,192],[422,25],[192,19]]","true","8","main_T2_Trial","d","img/Fire_Down_Target.gif","[""img/Fire_Up_Distractor.gif"",""img/Fire_Up_Distractor.gif"",""img/Fire_Up_Distractor.gif"",""img/Fire_Up_Distractor.gif"",""img/Fire_Up_Distractor.gif"",""img/Fire_Up_Distractor.gif"",""img/Fire_Up_Distractor.gif"",""img/Fire_Up_Distractor.gif"",""img/Fire_Up_Distractor.gif"",""img/Fire_Up_Distractor.gif"",""img/Fire_Up_Distractor.gif"",""img/Fire_Up_Distractor.gif""]","8","targetDown_distractorsUp"
"","","","","","html-keyboard-response","216","475630","0.0-14.0-0.0-0.101","5f37dc3b4e588b26d099ceac","619531dcf66c91622fa1b861","619595f6f4924c7d4f95951b","null","","null","","","","","main_T1_ITI","","","","",""
"","","","","","visual-search-circle","217","478719","0.0-14.0-0.0-1.101","5f37dc3b4e588b26d099ceac","619531dcf66c91622fa1b861","619595f6f4924c7d4f95951b","2083","","s","false","[[431,30],[84,91],[35,440],[352,595],[597,341]]","true","5","main_T2_Trial","d","img/Fire_Up_Target.gif","[""img/Fire_Down_Distractor.gif"",""img/Fire_Down_Distractor.gif"",""img/Fire_Down_Distractor.gif"",""img/Fire_Down_Distractor.gif"",""img/Fire_Down_Distractor.gif"",""img/Fire_Down_Distractor.gif"",""img/Fire_Down_Distractor.gif"",""img/Fire_Down_Distractor.gif"",""img/Fire_Down_Distractor.gif"",""img/Fire_Down_Distractor.gif"",""img/Fire_Down_Distractor.gif"",""img/Fire_Down_Distractor.gif""]","5","targetUp_distractorsDown"
"","","","","","html-keyboard-response","218","478720","0.0-14.0-0.0-0.102","5f37dc3b4e588b26d099ceac","619531dcf66c91622fa1b861","619595f6f4924c7d4f95951b","null","","null","","","","","main_T1_ITI","","","","",""
