"success","timeout","failed_images","failed_audio","failed_video","trial_type","trial_index","time_elapsed","internal_node_id","subject_id","study_id","session_id","rt","stimulus","response","correct","locations","target_present","set_size","task","correct_response","target","foilCM","setSizeCM","searchCondition"
"true","false","[]","[]","[]","preload","0","25514","0.0-0.0","5f513779f44f1533e7274c47","619531dcf66c91622fa1b861","6195961a539cae53f5c13b51","","","","","","","","","","","","",""
"true","","","","","fullscreen","1","205135","0.0-1.0","5f513779f44f1533e7274c47","619531dcf66c91622fa1b861","6195961a539cae53f5c13b51","","","","","","","","","","","","",""
"","","","","","html-keyboard-response","2","210176","0.0-2.0","5f513779f44f1533e7274c47","619531dcf66c91622fa1b861","6195961a539cae53f5c13b51","5031.39999999851","What a beautiful Thursday to do some awesome science! </p> <p>  </p><p> </p>
    By completing this survey or questionnaire, you are consenting to be in this research study. </p>
    Your participation is voluntary and you can stop at any time.
    <p> [Press any key to continue.] </p>
    
    "," ","","","","","","","","","",""
"","","","","","video-keyboard-response","3","247543","0.0-3.0","5f513779f44f1533e7274c47","619531dcf66c91622fa1b861","6195961a539cae53f5c13b51","37356.20000000298","[""video/TaskInstructions.mp4""]","d","","","","","","","","","",""
"","","","","","html-keyboard-response","4","250665","0.0-4.0","5f513779f44f1533e7274c47","619531dcf66c91622fa1b861","6195961a539cae53f5c13b51","3119.6999999955297","
    <p>First, we're going to do a few practice trials to make sure you understand the task. You will recieve feedback on each trial. </p>
    <p>[Press any key to begin the familiarization phase.]</p>
    ","d","","","","","","","","","",""
"","","","","","visual-search-circle","5","260066","0.0-5.0-0.0","5f513779f44f1533e7274c47","619531dcf66c91622fa1b861","6195961a539cae53f5c13b51","8325.39999999851","","d","true","[[341,2],[2,258],[258,597],[597,341]]","true","4","training","d","","","",""
"","","","","","html-keyboard-response","6","262964","0.0-6.0","5f513779f44f1533e7274c47","619531dcf66c91622fa1b861","6195961a539cae53f5c13b51","2893.7000000029802"," <div style='float: center; '><img src='img/feedbackRight.png'></img> </div> "," ","","","","","","","","","",""
"","","","","","visual-search-circle","7","269607","0.0-7.0-0.0","5f513779f44f1533e7274c47","619531dcf66c91622fa1b861","6195961a539cae53f5c13b51","5624.80000000447","","s","true","[[346,3],[3,253],[253,596],[596,346]]","false","4","training","s","","","",""
"","","","","","html-keyboard-response","8","271685","0.0-8.0","5f513779f44f1533e7274c47","619531dcf66c91622fa1b861","6195961a539cae53f5c13b51","2074.39999999851"," <div style='float: center; '><img src='img/feedbackRight.png'></img> </div> "," ","","","","","","","","","",""
"","","","","","visual-search-circle","9","278043","0.0-9.0-0.0","5f513779f44f1533e7274c47","619531dcf66c91622fa1b861","6195961a539cae53f5c13b51","5330.89999999851","","s","true","[[476,57],[177,25],[1,268],[123,542],[422,574],[598,331]]","false","6","training","s","","","",""
"","","","","","html-keyboard-response","10","278785","0.0-10.0","5f513779f44f1533e7274c47","619531dcf66c91622fa1b861","6195961a539cae53f5c13b51","738.3999999985099"," <div style='float: center; '><img src='img/feedbackRight.png'></img> </div> "," ","","","","","","","","","",""
"","","","","","visual-search-circle","11","286978","0.0-11.0-0.0","5f513779f44f1533e7274c47","619531dcf66c91622fa1b861","6195961a539cae53f5c13b51","7163","","d","true","[[84,508],[294,599],[508,515],[599,305],[515,91],[305,0],[91,84],[0,294]]","true","8","training","d","","","",""
"","","","","","html-keyboard-response","12","287843","0.0-12.0","5f513779f44f1533e7274c47","619531dcf66c91622fa1b861","6195961a539cae53f5c13b51","861.4000000059605"," <div style='float: center; '><img src='img/feedbackRight.png'></img> </div> "," ","","","","","","","","","",""
"","","","","","video-keyboard-response","13","291657","0.0-13.0","5f513779f44f1533e7274c47","619531dcf66c91622fa1b861","6195961a539cae53f5c13b51","3805.39999999851","[""video/endTraining.mp4""]"," ","","","","","","","","","",""
"","","","","","html-keyboard-response","14","291660","0.0-14.0-0.0-0.0","5f513779f44f1533e7274c47","619531dcf66c91622fa1b861","6195961a539cae53f5c13b51","null","","null","","","","","main_T1_ITI","","","","",""
"","","","","","visual-search-circle","15","295888","0.0-14.0-0.0-1.0","5f513779f44f1533e7274c47","619531dcf66c91622fa1b861","6195961a539cae53f5c13b51","3165.89999999851","","s","true","[[598,268],[422,25],[123,57],[1,331],[177,574],[476,542]]","false","6","main_T2_Trial","s","img/Fire_Up_Target.gif","[""img/Fire_Down_Distractor.gif"",""img/Fire_Down_Distractor.gif"",""img/Fire_Down_Distractor.gif"",""img/Fire_Down_Distractor.gif"",""img/Fire_Down_Distractor.gif"",""img/Fire_Down_Distractor.gif"",""img/Fire_Down_Distractor.gif"",""img/Fire_Down_Distractor.gif"",""img/Fire_Down_Distractor.gif"",""img/Fire_Down_Distractor.gif"",""img/Fire_Down_Distractor.gif"",""img/Fire_Down_Distractor.gif""]","6","targetUp_distractorsDown"
"","","","","","html-keyboard-response","16","295936","0.0-14.0-0.0-0.1","5f513779f44f1533e7274c47","619531dcf66c91622fa1b861","6195961a539cae53f5c13b51","null","","null","","","","","main_T1_ITI","","","","",""
"","","","","","visual-search-circle","17","304862","0.0-14.0-0.0-1.1","5f513779f44f1533e7274c47","619531dcf66c91622fa1b861","6195961a539cae53f5c13b51","7905.5","","s","false","[[417,576],[578,412],[576,182],[412,21],[182,23],[21,187],[23,417],[187,578]]","true","8","main_T2_Trial","d","img/Fire_Down_Target.gif","[""img/Fire_Up_Distractor.gif"",""img/Fire_Up_Distractor.gif"",""img/Fire_Up_Distractor.gif"",""img/Fire_Up_Distractor.gif"",""img/Fire_Up_Distractor.gif"",""img/Fire_Up_Distractor.gif"",""img/Fire_Up_Distractor.gif"",""img/Fire_Up_Distractor.gif"",""img/Fire_Up_Distractor.gif"",""img/Fire_Up_Distractor.gif"",""img/Fire_Up_Distractor.gif"",""img/Fire_Up_Distractor.gif""]","8","targetDown_distractorsUp"
"","","","","","html-keyboard-response","18","304865","0.0-14.0-0.0-0.2","5f513779f44f1533e7274c47","619531dcf66c91622fa1b861","6195961a539cae53f5c13b51","null","","null","","","","","main_T1_ITI","","","","",""
"","","","","","visual-search-circle","19","310888","0.0-14.0-0.0-1.2","5f513779f44f1533e7274c47","619531dcf66c91622fa1b861","6195961a539cae53f5c13b51","4998.19999999553","","d","true","[[472,545],[599,318],[501,77],[251,3],[38,153],[22,413],[215,587]]","true","7","main_T2_Trial","d","img/Fire_Down_Target.gif","[""img/Fire_Up_Distractor.gif"",""img/Fire_Up_Distractor.gif"",""img/Fire_Up_Distractor.gif"",""img/Fire_Up_Distractor.gif"",""img/Fire_Up_Distractor.gif"",""img/Fire_Up_Distractor.gif"",""img/Fire_Up_Distractor.gif"",""img/Fire_Up_Distractor.gif"",""img/Fire_Up_Distractor.gif"",""img/Fire_Up_Distractor.gif"",""img/Fire_Up_Distractor.gif"",""img/Fire_Up_Distractor.gif""]","7","targetDown_distractorsUp"
"","","","","","html-keyboard-response","20","310953","0.0-14.0-0.0-0.3","5f513779f44f1533e7274c47","619531dcf66c91622fa1b861","6195961a539cae53f5c13b51","null","","null","","","","","main_T1_ITI","","","","",""
"","","","","","visual-search-circle","21","318308","0.0-14.0-0.0-1.3","5f513779f44f1533e7274c47","619531dcf66c91622fa1b861","6195961a539cae53f5c13b51","6330.0999999940395","","s","true","[[492,70],[273,1],[70,107],[1,326],[107,529],[326,598],[529,492],[598,273]]","false","8","main_T2_Trial","s","img/Fire_Down_Target.gif","[""img/Fire_Up_Distractor.gif"",""img/Fire_Up_Distractor.gif"",""img/Fire_Up_Distractor.gif"",""img/Fire_Up_Distractor.gif"",""img/Fire_Up_Distractor.gif"",""img/Fire_Up_Distractor.gif"",""img/Fire_Up_Distractor.gif"",""img/Fire_Up_Distractor.gif"",""img/Fire_Up_Distractor.gif"",""img/Fire_Up_Distractor.gif"",""img/Fire_Up_Distractor.gif"",""img/Fire_Up_Distractor.gif""]","8","targetDown_distractorsUp"
"","","","","","html-keyboard-response","22","318370","0.0-14.0-0.0-0.4","5f513779f44f1533e7274c47","619531dcf66c91622fa1b861","6195961a539cae53f5c13b51","null","","null","","","","","main_T1_ITI","","","","",""
"","","","","","visual-search-circle","23","321344","0.0-14.0-0.0-1.4","5f513779f44f1533e7274c47","619531dcf66c91622fa1b861","6195961a539cae53f5c13b51","1951.2000000029802","","d","true","[[8,227],[91,515],[382,588],[591,372],[508,84],[217,11]]","true","6","main_T2_Trial","d","img/Fire_Down_Target.gif","[""img/Fire_Up_Distractor.gif"",""img/Fire_Up_Distractor.gif"",""img/Fire_Up_Distractor.gif"",""img/Fire_Up_Distractor.gif"",""img/Fire_Up_Distractor.gif"",""img/Fire_Up_Distractor.gif"",""img/Fire_Up_Distractor.gif"",""img/Fire_Up_Distractor.gif"",""img/Fire_Up_Distractor.gif"",""img/Fire_Up_Distractor.gif"",""img/Fire_Up_Distractor.gif"",""img/Fire_Up_Distractor.gif""]","6","targetDown_distractorsUp"
"","","","","","html-keyboard-response","24","321380","0.0-14.0-0.0-0.5","5f513779f44f1533e7274c47","619531dcf66c91622fa1b861","6195961a539cae53f5c13b51","null","","null","","","","","main_T1_ITI","","","","",""
"","","","","","visual-search-circle","25","326020","0.0-14.0-0.0-1.5","5f513779f44f1533e7274c47","619531dcf66c91622fa1b861","6195961a539cae53f5c13b51","3619.10000000149","","s","true","[[237,6],[1,268],[177,574],[522,500],[559,150]]","false","5","main_T2_Trial","s","img/Fire_Up_Target.gif","[""img/Fire_Down_Distractor.gif"",""img/Fire_Down_Distractor.gif"",""img/Fire_Down_Distractor.gif"",""img/Fire_Down_Distractor.gif"",""img/Fire_Down_Distractor.gif"",""img/Fire_Down_Distractor.gif"",""img/Fire_Down_Distractor.gif"",""img/Fire_Down_Distractor.gif"",""img/Fire_Down_Distractor.gif"",""img/Fire_Down_Distractor.gif"",""img/Fire_Down_Distractor.gif"",""img/Fire_Down_Distractor.gif""]","5","targetUp_distractorsDown"
"","","","","","html-keyboard-response","26","326164","0.0-14.0-0.0-0.6","5f513779f44f1533e7274c47","619531dcf66c91622fa1b861","6195961a539cae53f5c13b51","null","","null","","","","","main_T1_ITI","","","","",""
"","","","","","visual-search-circle","27","335318","0.0-14.0-0.0-1.6","5f513779f44f1533e7274c47","619531dcf66c91622fa1b861","6195961a539cae53f5c13b51","8129.5","","d","true","[[539,480],[590,225],[422,26],[162,33],[5,241],[70,493],[308,599]]","true","7","main_T2_Trial","d","img/Fire_Up_Target.gif","[""img/Fire_Down_Distractor.gif"",""img/Fire_Down_Distractor.gif"",""img/Fire_Down_Distractor.gif"",""img/Fire_Down_Distractor.gif"",""img/Fire_Down_Distractor.gif"",""img/Fire_Down_Distractor.gif"",""img/Fire_Down_Distractor.gif"",""img/Fire_Down_Distractor.gif"",""img/Fire_Down_Distractor.gif"",""img/Fire_Down_Distractor.gif"",""img/Fire_Down_Distractor.gif"",""img/Fire_Down_Distractor.gif""]","7","targetUp_distractorsDown"
"","","","","","html-keyboard-response","28","335386","0.0-14.0-0.0-0.7","5f513779f44f1533e7274c47","619531dcf66c91622fa1b861","6195961a539cae53f5c13b51","null","","null","","","","","main_T1_ITI","","","","",""
"","","","","","visual-search-circle","29","341353","0.0-14.0-0.0-1.7","5f513779f44f1533e7274c47","619531dcf66c91622fa1b861","6195961a539cae53f5c13b51","4945.79999999702","","s","true","[[522,500],[585,207],[362,6],[77,99],[14,392],[237,593]]","false","6","main_T2_Trial","s","img/Fire_Down_Target.gif","[""img/Fire_Up_Distractor.gif"",""img/Fire_Up_Distractor.gif"",""img/Fire_Up_Distractor.gif"",""img/Fire_Up_Distractor.gif"",""img/Fire_Up_Distractor.gif"",""img/Fire_Up_Distractor.gif"",""img/Fire_Up_Distractor.gif"",""img/Fire_Up_Distractor.gif"",""img/Fire_Up_Distractor.gif"",""img/Fire_Up_Distractor.gif"",""img/Fire_Up_Distractor.gif"",""img/Fire_Up_Distractor.gif""]","6","targetDown_distractorsUp"
"","","","","","html-keyboard-response","30","341369","0.0-14.0-0.0-0.8","5f513779f44f1533e7274c47","619531dcf66c91622fa1b861","6195961a539cae53f5c13b51","null","","null","","","","","main_T1_ITI","","","","",""
"","","","","","visual-search-circle","31","346328","0.0-14.0-0.0-1.8","5f513779f44f1533e7274c47","619531dcf66c91622fa1b861","6195961a539cae53f5c13b51","3942.5","","d","true","[[32,163],[163,567],[567,436],[436,32]]","true","4","main_T2_Trial","d","img/Fire_Up_Target.gif","[""img/Fire_Down_Distractor.gif"",""img/Fire_Down_Distractor.gif"",""img/Fire_Down_Distractor.gif"",""img/Fire_Down_Distractor.gif"",""img/Fire_Down_Distractor.gif"",""img/Fire_Down_Distractor.gif"",""img/Fire_Down_Distractor.gif"",""img/Fire_Down_Distractor.gif"",""img/Fire_Down_Distractor.gif"",""img/Fire_Down_Distractor.gif"",""img/Fire_Down_Distractor.gif"",""img/Fire_Down_Distractor.gif""]","4","targetUp_distractorsDown"
"","","","","","html-keyboard-response","32","346419","0.0-14.0-0.0-0.9","5f513779f44f1533e7274c47","619531dcf66c91622fa1b861","6195961a539cae53f5c13b51","null","","null","","","","","main_T1_ITI","","","","",""
"","","","","","visual-search-circle","33","351218","0.0-14.0-0.0-1.9","5f513779f44f1533e7274c47","619531dcf66c91622fa1b861","6195961a539cae53f5c13b51","3775.6999999955297","","d","true","[[346,3],[66,111],[19,407],[253,596],[533,488],[580,192]]","true","6","main_T2_Trial","d","img/Fire_Up_Target.gif","[""img/Fire_Down_Distractor.gif"",""img/Fire_Down_Distractor.gif"",""img/Fire_Down_Distractor.gif"",""img/Fire_Down_Distractor.gif"",""img/Fire_Down_Distractor.gif"",""img/Fire_Down_Distractor.gif"",""img/Fire_Down_Distractor.gif"",""img/Fire_Down_Distractor.gif"",""img/Fire_Down_Distractor.gif"",""img/Fire_Down_Distractor.gif"",""img/Fire_Down_Distractor.gif"",""img/Fire_Down_Distractor.gif""]","6","targetUp_distractorsDown"
"","","","","","html-keyboard-response","34","351255","0.0-14.0-0.0-0.10","5f513779f44f1533e7274c47","619531dcf66c91622fa1b861","6195961a539cae53f5c13b51","null","","null","","","","","main_T1_ITI","","","","",""
"","","","","","visual-search-circle","35","354785","0.0-14.0-0.0-1.10","5f513779f44f1533e7274c47","619531dcf66c91622fa1b861","6195961a539cae53f5c13b51","2509.2000000029802","","d","true","[[19,192],[41,451],[257,596],[505,518],[598,275],[467,50],[209,13]]","true","7","main_T2_Trial","d","img/Fire_Down_Target.gif","[""img/Fire_Up_Distractor.gif"",""img/Fire_Up_Distractor.gif"",""img/Fire_Up_Distractor.gif"",""img/Fire_Up_Distractor.gif"",""img/Fire_Up_Distractor.gif"",""img/Fire_Up_Distractor.gif"",""img/Fire_Up_Distractor.gif"",""img/Fire_Up_Distractor.gif"",""img/Fire_Up_Distractor.gif"",""img/Fire_Up_Distractor.gif"",""img/Fire_Up_Distractor.gif"",""img/Fire_Up_Distractor.gif""]","7","targetDown_distractorsUp"
"","","","","","html-keyboard-response","36","354798","0.0-14.0-0.0-0.11","5f513779f44f1533e7274c47","619531dcf66c91622fa1b861","6195961a539cae53f5c13b51","null","","null","","","","","main_T1_ITI","","","","",""
"","","","","","visual-search-circle","37","359346","0.0-14.0-0.0-1.11","5f513779f44f1533e7274c47","619531dcf66c91622fa1b861","6195961a539cae53f5c13b51","3522.6999999955297","","s","true","[[197,18],[28,173],[18,402],[173,571],[402,581],[571,426],[581,197],[426,28]]","false","8","main_T2_Trial","s","img/Fire_Up_Target.gif","[""img/Fire_Down_Distractor.gif"",""img/Fire_Down_Distractor.gif"",""img/Fire_Down_Distractor.gif"",""img/Fire_Down_Distractor.gif"",""img/Fire_Down_Distractor.gif"",""img/Fire_Down_Distractor.gif"",""img/Fire_Down_Distractor.gif"",""img/Fire_Down_Distractor.gif"",""img/Fire_Down_Distractor.gif"",""img/Fire_Down_Distractor.gif"",""img/Fire_Down_Distractor.gif"",""img/Fire_Down_Distractor.gif""]","8","targetUp_distractorsDown"
"","","","","","html-keyboard-response","38","359376","0.0-14.0-0.0-0.12","5f513779f44f1533e7274c47","619531dcf66c91622fa1b861","6195961a539cae53f5c13b51","null","","null","","","","","main_T1_ITI","","","","",""
"","","","","","visual-search-circle","39","368942","0.0-14.0-0.0-1.12","5f513779f44f1533e7274c47","619531dcf66c91622fa1b861","6195961a539cae53f5c13b51","8555.29999999702","","d","false","[[463,551],[551,136],[136,48],[48,463]]","false","4","main_T2_Trial","s","img/Fire_Down_Target.gif","[""img/Fire_Up_Distractor.gif"",""img/Fire_Up_Distractor.gif"",""img/Fire_Up_Distractor.gif"",""img/Fire_Up_Distractor.gif"",""img/Fire_Up_Distractor.gif"",""img/Fire_Up_Distractor.gif"",""img/Fire_Up_Distractor.gif"",""img/Fire_Up_Distractor.gif"",""img/Fire_Up_Distractor.gif"",""img/Fire_Up_Distractor.gif"",""img/Fire_Up_Distractor.gif"",""img/Fire_Up_Distractor.gif""]","4","targetDown_distractorsUp"
"","","","","","html-keyboard-response","40","368998","0.0-14.0-0.0-0.13","5f513779f44f1533e7274c47","619531dcf66c91622fa1b861","6195961a539cae53f5c13b51","null","","null","","","","","main_T1_ITI","","","","",""
"","","","","","visual-search-circle","41","376076","0.0-14.0-0.0-1.13","5f513779f44f1533e7274c47","619531dcf66c91622fa1b861","6195961a539cae53f5c13b51","6053.5","","d","true","[[127,54],[4,247],[54,472],[247,595],[472,545],[595,352],[545,127],[352,4]]","true","8","main_T2_Trial","d","img/Fire_Down_Target.gif","[""img/Fire_Up_Distractor.gif"",""img/Fire_Up_Distractor.gif"",""img/Fire_Up_Distractor.gif"",""img/Fire_Up_Distractor.gif"",""img/Fire_Up_Distractor.gif"",""img/Fire_Up_Distractor.gif"",""img/Fire_Up_Distractor.gif"",""img/Fire_Up_Distractor.gif"",""img/Fire_Up_Distractor.gif"",""img/Fire_Up_Distractor.gif"",""img/Fire_Up_Distractor.gif"",""img/Fire_Up_Distractor.gif""]","8","targetDown_distractorsUp"
"","","","","","html-keyboard-response","42","376123","0.0-14.0-0.0-0.14","5f513779f44f1533e7274c47","619531dcf66c91622fa1b861","6195961a539cae53f5c13b51","null","","null","","","","","main_T1_ITI","","","","",""
"","","","","","visual-search-circle","43","381070","0.0-14.0-0.0-1.14","5f513779f44f1533e7274c47","619531dcf66c91622fa1b861","6195961a539cae53f5c13b51","3927.10000000149","","d","true","[[417,576],[598,273],[367,7],[42,145],[73,496]]","true","5","main_T2_Trial","d","img/Fire_Down_Target.gif","[""img/Fire_Up_Distractor.gif"",""img/Fire_Up_Distractor.gif"",""img/Fire_Up_Distractor.gif"",""img/Fire_Up_Distractor.gif"",""img/Fire_Up_Distractor.gif"",""img/Fire_Up_Distractor.gif"",""img/Fire_Up_Distractor.gif"",""img/Fire_Up_Distractor.gif"",""img/Fire_Up_Distractor.gif"",""img/Fire_Up_Distractor.gif"",""img/Fire_Up_Distractor.gif"",""img/Fire_Up_Distractor.gif""]","5","targetDown_distractorsUp"
"","","","","","html-keyboard-response","44","381176","0.0-14.0-0.0-0.15","5f513779f44f1533e7274c47","619531dcf66c91622fa1b861","6195961a539cae53f5c13b51","null","","null","","","","","main_T1_ITI","","","","",""
"","","","","","visual-search-circle","45","387230","0.0-14.0-0.0-1.15","5f513779f44f1533e7274c47","619531dcf66c91622fa1b861","6195961a539cae53f5c13b51","5038.0999999940395","","d","false","[[294,0],[13,212],[127,545],[480,539],[583,202]]","false","5","main_T2_Trial","s","img/Fire_Down_Target.gif","[""img/Fire_Up_Distractor.gif"",""img/Fire_Up_Distractor.gif"",""img/Fire_Up_Distractor.gif"",""img/Fire_Up_Distractor.gif"",""img/Fire_Up_Distractor.gif"",""img/Fire_Up_Distractor.gif"",""img/Fire_Up_Distractor.gif"",""img/Fire_Up_Distractor.gif"",""img/Fire_Up_Distractor.gif"",""img/Fire_Up_Distractor.gif"",""img/Fire_Up_Distractor.gif"",""img/Fire_Up_Distractor.gif""]","5","targetDown_distractorsUp"
"","","","","","html-keyboard-response","46","387233","0.0-14.0-0.0-0.16","5f513779f44f1533e7274c47","619531dcf66c91622fa1b861","6195961a539cae53f5c13b51","null","","null","","","","","main_T1_ITI","","","","",""
"","","","","","visual-search-circle","47","392085","0.0-14.0-0.0-1.16","5f513779f44f1533e7274c47","619531dcf66c91622fa1b861","6195961a539cae53f5c13b51","3827","","s","true","[[594,357],[528,105],[290,0],[59,120],[9,376],[178,574],[438,565]]","false","7","main_T2_Trial","s","img/Fire_Down_Target.gif","[""img/Fire_Up_Distractor.gif"",""img/Fire_Up_Distractor.gif"",""img/Fire_Up_Distractor.gif"",""img/Fire_Up_Distractor.gif"",""img/Fire_Up_Distractor.gif"",""img/Fire_Up_Distractor.gif"",""img/Fire_Up_Distractor.gif"",""img/Fire_Up_Distractor.gif"",""img/Fire_Up_Distractor.gif"",""img/Fire_Up_Distractor.gif"",""img/Fire_Up_Distractor.gif"",""img/Fire_Up_Distractor.gif""]","7","targetDown_distractorsUp"
"","","","","","html-keyboard-response","48","392113","0.0-14.0-0.0-0.17","5f513779f44f1533e7274c47","619531dcf66c91622fa1b861","6195961a539cae53f5c13b51","null","","null","","","","","main_T1_ITI","","","","",""
"","","","","","visual-search-circle","49","395041","0.0-14.0-0.0-1.17","5f513779f44f1533e7274c47","619531dcf66c91622fa1b861","6195961a539cae53f5c13b51","1907.3000000044703","","d","true","[[132,548],[484,536],[581,197],[289,0],[11,217]]","true","5","main_T2_Trial","d","img/Fire_Up_Target.gif","[""img/Fire_Down_Distractor.gif"",""img/Fire_Down_Distractor.gif"",""img/Fire_Down_Distractor.gif"",""img/Fire_Down_Distractor.gif"",""img/Fire_Down_Distractor.gif"",""img/Fire_Down_Distractor.gif"",""img/Fire_Down_Distractor.gif"",""img/Fire_Down_Distractor.gif"",""img/Fire_Down_Distractor.gif"",""img/Fire_Down_Distractor.gif"",""img/Fire_Down_Distractor.gif"",""img/Fire_Down_Distractor.gif""]","5","targetUp_distractorsDown"
"","","","","","html-keyboard-response","50","395115","0.0-14.0-0.0-0.18","5f513779f44f1533e7274c47","619531dcf66c91622fa1b861","6195961a539cae53f5c13b51","null","","null","","","","","main_T1_ITI","","","","",""
"","","","","","visual-search-circle","51","400018","0.0-14.0-0.0-1.18","5f513779f44f1533e7274c47","619531dcf66c91622fa1b861","6195961a539cae53f5c13b51","3876.60000000149","","s","true","[[557,454],[591,227],[454,42],[227,8],[42,145],[8,372],[145,557],[372,591]]","false","8","main_T2_Trial","s","img/Fire_Down_Target.gif","[""img/Fire_Up_Distractor.gif"",""img/Fire_Up_Distractor.gif"",""img/Fire_Up_Distractor.gif"",""img/Fire_Up_Distractor.gif"",""img/Fire_Up_Distractor.gif"",""img/Fire_Up_Distractor.gif"",""img/Fire_Up_Distractor.gif"",""img/Fire_Up_Distractor.gif"",""img/Fire_Up_Distractor.gif"",""img/Fire_Up_Distractor.gif"",""img/Fire_Up_Distractor.gif"",""img/Fire_Up_Distractor.gif""]","8","targetDown_distractorsUp"
"","","","","","html-keyboard-response","52","413580","0.0-14.0-0.0-0.19","5f513779f44f1533e7274c47","619531dcf66c91622fa1b861","6195961a539cae53f5c13b51","13560.29999999702","Wow! You've completed 20 out of 160 trials! </p> <p>  </p><p> Take a quick break, then press any key when you're ready to continue."," ","","","","","main_T1_ITI","","","","",""
"","","","","","visual-search-circle","53","420336","0.0-14.0-0.0-1.19","5f513779f44f1533e7274c47","619531dcf66c91622fa1b861","6195961a539cae53f5c13b51","5731","","d","false","[[426,28],[166,31],[6,236],[67,489],[303,599],[536,484],[591,229]]","false","7","main_T2_Trial","s","img/Fire_Down_Target.gif","[""img/Fire_Up_Distractor.gif"",""img/Fire_Up_Distractor.gif"",""img/Fire_Up_Distractor.gif"",""img/Fire_Up_Distractor.gif"",""img/Fire_Up_Distractor.gif"",""img/Fire_Up_Distractor.gif"",""img/Fire_Up_Distractor.gif"",""img/Fire_Up_Distractor.gif"",""img/Fire_Up_Distractor.gif"",""img/Fire_Up_Distractor.gif"",""img/Fire_Up_Distractor.gif"",""img/Fire_Up_Distractor.gif""]","7","targetDown_distractorsUp"
"","","","","","html-keyboard-response","54","420349","0.0-14.0-0.0-0.20","5f513779f44f1533e7274c47","619531dcf66c91622fa1b861","6195961a539cae53f5c13b51","null","","null","","","","","main_T1_ITI","","","","",""
"","","","","","visual-search-circle","55","424476","0.0-14.0-0.0-1.20","5f513779f44f1533e7274c47","619531dcf66c91622fa1b861","6195961a539cae53f5c13b51","3110.10000000149","","d","true","[[119,539],[539,480],[480,60],[60,119]]","true","4","main_T2_Trial","d","img/Fire_Down_Target.gif","[""img/Fire_Up_Distractor.gif"",""img/Fire_Up_Distractor.gif"",""img/Fire_Up_Distractor.gif"",""img/Fire_Up_Distractor.gif"",""img/Fire_Up_Distractor.gif"",""img/Fire_Up_Distractor.gif"",""img/Fire_Up_Distractor.gif"",""img/Fire_Up_Distractor.gif"",""img/Fire_Up_Distractor.gif"",""img/Fire_Up_Distractor.gif"",""img/Fire_Up_Distractor.gif"",""img/Fire_Up_Distractor.gif""]","4","targetDown_distractorsUp"
"","","","","","html-keyboard-response","56","424488","0.0-14.0-0.0-0.21","5f513779f44f1533e7274c47","619531dcf66c91622fa1b861","6195961a539cae53f5c13b51","null","","null","","","","","main_T1_ITI","","","","",""
"","","","","","visual-search-circle","57","432251","0.0-14.0-0.0-1.21","5f513779f44f1533e7274c47","619531dcf66c91622fa1b861","6195961a539cae53f5c13b51","6744.89999999851","","s","true","[[341,597],[595,352],[440,35],[91,84],[30,431]]","false","5","main_T2_Trial","s","img/Fire_Up_Target.gif","[""img/Fire_Down_Distractor.gif"",""img/Fire_Down_Distractor.gif"",""img/Fire_Down_Distractor.gif"",""img/Fire_Down_Distractor.gif"",""img/Fire_Down_Distractor.gif"",""img/Fire_Down_Distractor.gif"",""img/Fire_Down_Distractor.gif"",""img/Fire_Down_Distractor.gif"",""img/Fire_Down_Distractor.gif"",""img/Fire_Down_Distractor.gif"",""img/Fire_Down_Distractor.gif"",""img/Fire_Down_Distractor.gif""]","5","targetUp_distractorsDown"
"","","","","","html-keyboard-response","58","432275","0.0-14.0-0.0-0.22","5f513779f44f1533e7274c47","619531dcf66c91622fa1b861","6195961a539cae53f5c13b51","null","","null","","","","","main_T1_ITI","","","","",""
"","","","","","visual-search-circle","59","444228","0.0-14.0-0.0-1.22","5f513779f44f1533e7274c47","619531dcf66c91622fa1b861","6195961a539cae53f5c13b51","10925.69999999553","","d","true","[[14,207],[49,465],[273,598],[516,507],[597,259],[453,42],[194,19]]","true","7","main_T2_Trial","d","img/Fire_Down_Target.gif","[""img/Fire_Up_Distractor.gif"",""img/Fire_Up_Distractor.gif"",""img/Fire_Up_Distractor.gif"",""img/Fire_Up_Distractor.gif"",""img/Fire_Up_Distractor.gif"",""img/Fire_Up_Distractor.gif"",""img/Fire_Up_Distractor.gif"",""img/Fire_Up_Distractor.gif"",""img/Fire_Up_Distractor.gif"",""img/Fire_Up_Distractor.gif"",""img/Fire_Up_Distractor.gif"",""img/Fire_Up_Distractor.gif""]","7","targetDown_distractorsUp"
"","","","","","html-keyboard-response","60","444244","0.0-14.0-0.0-0.23","5f513779f44f1533e7274c47","619531dcf66c91622fa1b861","6195961a539cae53f5c13b51","null","","null","","","","","main_T1_ITI","","","","",""
"","","","","","visual-search-circle","61","452591","0.0-14.0-0.0-1.23","5f513779f44f1533e7274c47","619531dcf66c91622fa1b861","6195961a539cae53f5c13b51","7327.20000000298","","d","false","[[136,48],[48,463],[463,551],[551,136]]","false","4","main_T2_Trial","s","img/Fire_Down_Target.gif","[""img/Fire_Up_Distractor.gif"",""img/Fire_Up_Distractor.gif"",""img/Fire_Up_Distractor.gif"",""img/Fire_Up_Distractor.gif"",""img/Fire_Up_Distractor.gif"",""img/Fire_Up_Distractor.gif"",""img/Fire_Up_Distractor.gif"",""img/Fire_Up_Distractor.gif"",""img/Fire_Up_Distractor.gif"",""img/Fire_Up_Distractor.gif"",""img/Fire_Up_Distractor.gif"",""img/Fire_Up_Distractor.gif""]","4","targetDown_distractorsUp"
"","","","","","html-keyboard-response","62","452641","0.0-14.0-0.0-0.24","5f513779f44f1533e7274c47","619531dcf66c91622fa1b861","6195961a539cae53f5c13b51","null","","null","","","","","main_T1_ITI","","","","",""
"","","","","","visual-search-circle","63","456035","0.0-14.0-0.0-1.24","5f513779f44f1533e7274c47","619531dcf66c91622fa1b861","6195961a539cae53f5c13b51","2373.6999999955297","","d","true","[[177,25],[25,422],[422,574],[574,177]]","true","4","main_T2_Trial","d","img/Fire_Up_Target.gif","[""img/Fire_Down_Distractor.gif"",""img/Fire_Down_Distractor.gif"",""img/Fire_Down_Distractor.gif"",""img/Fire_Down_Distractor.gif"",""img/Fire_Down_Distractor.gif"",""img/Fire_Down_Distractor.gif"",""img/Fire_Down_Distractor.gif"",""img/Fire_Down_Distractor.gif"",""img/Fire_Down_Distractor.gif"",""img/Fire_Down_Distractor.gif"",""img/Fire_Down_Distractor.gif"",""img/Fire_Down_Distractor.gif""]","4","targetUp_distractorsDown"
"","","","","","html-keyboard-response","64","456094","0.0-14.0-0.0-0.25","5f513779f44f1533e7274c47","619531dcf66c91622fa1b861","6195961a539cae53f5c13b51","null","","null","","","","","main_T1_ITI","","","","",""
"","","","","","visual-search-circle","65","462733","0.0-14.0-0.0-1.25","5f513779f44f1533e7274c47","619531dcf66c91622fa1b861","6195961a539cae53f5c13b51","5608.89999999851","","d","false","[[168,569],[515,508],[564,159],[247,4],[2,258]]","false","5","main_T2_Trial","s","img/Fire_Down_Target.gif","[""img/Fire_Up_Distractor.gif"",""img/Fire_Up_Distractor.gif"",""img/Fire_Up_Distractor.gif"",""img/Fire_Up_Distractor.gif"",""img/Fire_Up_Distractor.gif"",""img/Fire_Up_Distractor.gif"",""img/Fire_Up_Distractor.gif"",""img/Fire_Up_Distractor.gif"",""img/Fire_Up_Distractor.gif"",""img/Fire_Up_Distractor.gif"",""img/Fire_Up_Distractor.gif"",""img/Fire_Up_Distractor.gif""]","5","targetDown_distractorsUp"
"","","","","","html-keyboard-response","66","462765","0.0-14.0-0.0-0.26","5f513779f44f1533e7274c47","619531dcf66c91622fa1b861","6195961a539cae53f5c13b51","null","","null","","","","","main_T1_ITI","","","","",""
"","","","","","visual-search-circle","67","466188","0.0-14.0-0.0-1.26","5f513779f44f1533e7274c47","619531dcf66c91622fa1b861","6195961a539cae53f5c13b51","2388.89999999851","","s","true","[[492,529],[599,292],[481,60],[225,9],[26,176],[33,436],[240,594]]","false","7","main_T2_Trial","s","img/Fire_Up_Target.gif","[""img/Fire_Down_Distractor.gif"",""img/Fire_Down_Distractor.gif"",""img/Fire_Down_Distractor.gif"",""img/Fire_Down_Distractor.gif"",""img/Fire_Down_Distractor.gif"",""img/Fire_Down_Distractor.gif"",""img/Fire_Down_Distractor.gif"",""img/Fire_Down_Distractor.gif"",""img/Fire_Down_Distractor.gif"",""img/Fire_Down_Distractor.gif"",""img/Fire_Down_Distractor.gif"",""img/Fire_Down_Distractor.gif""]","7","targetUp_distractorsDown"
"","","","","","html-keyboard-response","68","466260","0.0-14.0-0.0-0.27","5f513779f44f1533e7274c47","619531dcf66c91622fa1b861","6195961a539cae53f5c13b51","null","","null","","","","","main_T1_ITI","","","","",""
"","","","","","visual-search-circle","69","469360","0.0-14.0-0.0-1.27","5f513779f44f1533e7274c47","619531dcf66c91622fa1b861","6195961a539cae53f5c13b51","2077.10000000149","","d","true","[[77,99],[4,349],[153,562],[413,577],[587,384],[545,127],[317,0]]","true","7","main_T2_Trial","d","img/Fire_Up_Target.gif","[""img/Fire_Down_Distractor.gif"",""img/Fire_Down_Distractor.gif"",""img/Fire_Down_Distractor.gif"",""img/Fire_Down_Distractor.gif"",""img/Fire_Down_Distractor.gif"",""img/Fire_Down_Distractor.gif"",""img/Fire_Down_Distractor.gif"",""img/Fire_Down_Distractor.gif"",""img/Fire_Down_Distractor.gif"",""img/Fire_Down_Distractor.gif"",""img/Fire_Down_Distractor.gif"",""img/Fire_Down_Distractor.gif""]","7","targetUp_distractorsDown"
"","","","","","html-keyboard-response","70","469468","0.0-14.0-0.0-0.28","5f513779f44f1533e7274c47","619531dcf66c91622fa1b861","6195961a539cae53f5c13b51","null","","null","","","","","main_T1_ITI","","","","",""
"","","","","","visual-search-circle","71","476390","0.0-14.0-0.0-1.28","5f513779f44f1533e7274c47","619531dcf66c91622fa1b861","6195961a539cae53f5c13b51","5893.10000000149","","d","false","[[417,576],[588,380],[543,124],[314,0],[74,102],[4,352],[157,563]]","false","7","main_T2_Trial","s","img/Fire_Down_Target.gif","[""img/Fire_Up_Distractor.gif"",""img/Fire_Up_Distractor.gif"",""img/Fire_Up_Distractor.gif"",""img/Fire_Up_Distractor.gif"",""img/Fire_Up_Distractor.gif"",""img/Fire_Up_Distractor.gif"",""img/Fire_Up_Distractor.gif"",""img/Fire_Up_Distractor.gif"",""img/Fire_Up_Distractor.gif"",""img/Fire_Up_Distractor.gif"",""img/Fire_Up_Distractor.gif"",""img/Fire_Up_Distractor.gif""]","7","targetDown_distractorsUp"
"","","","","","html-keyboard-response","72","476420","0.0-14.0-0.0-0.29","5f513779f44f1533e7274c47","619531dcf66c91622fa1b861","6195961a539cae53f5c13b51","null","","null","","","","","main_T1_ITI","","","","",""
"","","","","","visual-search-circle","73","480212","0.0-14.0-0.0-1.29","5f513779f44f1533e7274c47","619531dcf66c91622fa1b861","6195961a539cae53f5c13b51","2771.39999999851","","d","true","[[0,284],[284,599],[599,315],[315,0]]","true","4","main_T2_Trial","d","img/Fire_Up_Target.gif","[""img/Fire_Down_Distractor.gif"",""img/Fire_Down_Distractor.gif"",""img/Fire_Down_Distractor.gif"",""img/Fire_Down_Distractor.gif"",""img/Fire_Down_Distractor.gif"",""img/Fire_Down_Distractor.gif"",""img/Fire_Down_Distractor.gif"",""img/Fire_Down_Distractor.gif"",""img/Fire_Down_Distractor.gif"",""img/Fire_Down_Distractor.gif"",""img/Fire_Down_Distractor.gif"",""img/Fire_Down_Distractor.gif""]","4","targetUp_distractorsDown"
"","","","","","html-keyboard-response","74","480240","0.0-14.0-0.0-0.30","5f513779f44f1533e7274c47","619531dcf66c91622fa1b861","6195961a539cae53f5c13b51","null","","null","","","","","main_T1_ITI","","","","",""
"","","","","","visual-search-circle","75","485020","0.0-14.0-0.0-1.30","5f513779f44f1533e7274c47","619531dcf66c91622fa1b861","6195961a539cae53f5c13b51","3764.7000000029802","","d","false","[[522,99],[99,77],[77,500],[500,522]]","false","4","main_T2_Trial","s","img/Fire_Down_Target.gif","[""img/Fire_Up_Distractor.gif"",""img/Fire_Up_Distractor.gif"",""img/Fire_Up_Distractor.gif"",""img/Fire_Up_Distractor.gif"",""img/Fire_Up_Distractor.gif"",""img/Fire_Up_Distractor.gif"",""img/Fire_Up_Distractor.gif"",""img/Fire_Up_Distractor.gif"",""img/Fire_Up_Distractor.gif"",""img/Fire_Up_Distractor.gif"",""img/Fire_Up_Distractor.gif"",""img/Fire_Up_Distractor.gif""]","4","targetDown_distractorsUp"
"","","","","","html-keyboard-response","76","485028","0.0-14.0-0.0-0.31","5f513779f44f1533e7274c47","619531dcf66c91622fa1b861","6195961a539cae53f5c13b51","null","","null","","","","","main_T1_ITI","","","","",""
"","","","","","visual-search-circle","77","490232","0.0-14.0-0.0-1.31","5f513779f44f1533e7274c47","619531dcf66c91622fa1b861","6195961a539cae53f5c13b51","4185.80000000447","","d","false","[[467,548],[548,132],[132,51],[51,467]]","false","4","main_T2_Trial","s","img/Fire_Up_Target.gif","[""img/Fire_Down_Distractor.gif"",""img/Fire_Down_Distractor.gif"",""img/Fire_Down_Distractor.gif"",""img/Fire_Down_Distractor.gif"",""img/Fire_Down_Distractor.gif"",""img/Fire_Down_Distractor.gif"",""img/Fire_Down_Distractor.gif"",""img/Fire_Down_Distractor.gif"",""img/Fire_Down_Distractor.gif"",""img/Fire_Down_Distractor.gif"",""img/Fire_Down_Distractor.gif"",""img/Fire_Down_Distractor.gif""]","4","targetUp_distractorsDown"
"","","","","","html-keyboard-response","78","490267","0.0-14.0-0.0-0.32","5f513779f44f1533e7274c47","619531dcf66c91622fa1b861","6195961a539cae53f5c13b51","null","","null","","","","","main_T1_ITI","","","","",""
"","","","","","visual-search-circle","79","494179","0.0-14.0-0.0-1.32","5f513779f44f1533e7274c47","619531dcf66c91622fa1b861","6195961a539cae53f5c13b51","2896.3000000044703","","d","true","[[123,57],[57,476],[476,542],[542,123]]","true","4","main_T2_Trial","d","img/Fire_Up_Target.gif","[""img/Fire_Down_Distractor.gif"",""img/Fire_Down_Distractor.gif"",""img/Fire_Down_Distractor.gif"",""img/Fire_Down_Distractor.gif"",""img/Fire_Down_Distractor.gif"",""img/Fire_Down_Distractor.gif"",""img/Fire_Down_Distractor.gif"",""img/Fire_Down_Distractor.gif"",""img/Fire_Down_Distractor.gif"",""img/Fire_Down_Distractor.gif"",""img/Fire_Down_Distractor.gif"",""img/Fire_Down_Distractor.gif""]","4","targetUp_distractorsDown"
"","","","","","html-keyboard-response","80","494275","0.0-14.0-0.0-0.33","5f513779f44f1533e7274c47","619531dcf66c91622fa1b861","6195961a539cae53f5c13b51","null","","null","","","","","main_T1_ITI","","","","",""
"","","","","","visual-search-circle","81","498667","0.0-14.0-0.0-1.33","5f513779f44f1533e7274c47","619531dcf66c91622fa1b861","6195961a539cae53f5c13b51","3363.5","","d","true","[[545,472],[587,215],[413,22],[153,38],[3,251],[77,501],[318,599]]","true","7","main_T2_Trial","d","img/Fire_Down_Target.gif","[""img/Fire_Up_Distractor.gif"",""img/Fire_Up_Distractor.gif"",""img/Fire_Up_Distractor.gif"",""img/Fire_Up_Distractor.gif"",""img/Fire_Up_Distractor.gif"",""img/Fire_Up_Distractor.gif"",""img/Fire_Up_Distractor.gif"",""img/Fire_Up_Distractor.gif"",""img/Fire_Up_Distractor.gif"",""img/Fire_Up_Distractor.gif"",""img/Fire_Up_Distractor.gif"",""img/Fire_Up_Distractor.gif""]","7","targetDown_distractorsUp"
"","","","","","html-keyboard-response","82","498701","0.0-14.0-0.0-0.34","5f513779f44f1533e7274c47","619531dcf66c91622fa1b861","6195961a539cae53f5c13b51","null","","null","","","","","main_T1_ITI","","","","",""
"","","","","","visual-search-circle","83","504032","0.0-14.0-0.0-1.34","5f513779f44f1533e7274c47","619531dcf66c91622fa1b861","6195961a539cae53f5c13b51","4301.80000000447","","d","false","[[253,596],[476,542],[596,346],[542,123],[346,3],[123,57],[3,253],[57,476]]","false","8","main_T2_Trial","s","img/Fire_Down_Target.gif","[""img/Fire_Up_Distractor.gif"",""img/Fire_Up_Distractor.gif"",""img/Fire_Up_Distractor.gif"",""img/Fire_Up_Distractor.gif"",""img/Fire_Up_Distractor.gif"",""img/Fire_Up_Distractor.gif"",""img/Fire_Up_Distractor.gif"",""img/Fire_Up_Distractor.gif"",""img/Fire_Up_Distractor.gif"",""img/Fire_Up_Distractor.gif"",""img/Fire_Up_Distractor.gif"",""img/Fire_Up_Distractor.gif""]","8","targetDown_distractorsUp"
"","","","","","html-keyboard-response","84","504062","0.0-14.0-0.0-0.35","5f513779f44f1533e7274c47","619531dcf66c91622fa1b861","6195961a539cae53f5c13b51","null","","null","","","","","main_T1_ITI","","","","",""
"","","","","","visual-search-circle","85","506965","0.0-14.0-0.0-1.35","5f513779f44f1533e7274c47","619531dcf66c91622fa1b861","6195961a539cae53f5c13b51","1889.2999999970198","","d","true","[[197,18],[0,310],[217,588],[548,467],[536,115]]","true","5","main_T2_Trial","d","img/Fire_Down_Target.gif","[""img/Fire_Up_Distractor.gif"",""img/Fire_Up_Distractor.gif"",""img/Fire_Up_Distractor.gif"",""img/Fire_Up_Distractor.gif"",""img/Fire_Up_Distractor.gif"",""img/Fire_Up_Distractor.gif"",""img/Fire_Up_Distractor.gif"",""img/Fire_Up_Distractor.gif"",""img/Fire_Up_Distractor.gif"",""img/Fire_Up_Distractor.gif"",""img/Fire_Up_Distractor.gif"",""img/Fire_Up_Distractor.gif""]","5","targetDown_distractorsUp"
"","","","","","html-keyboard-response","86","507004","0.0-14.0-0.0-0.36","5f513779f44f1533e7274c47","619531dcf66c91622fa1b861","6195961a539cae53f5c13b51","null","","null","","","","","main_T1_ITI","","","","",""
"","","","","","visual-search-circle","87","511122","0.0-14.0-0.0-1.36","5f513779f44f1533e7274c47","619531dcf66c91622fa1b861","6195961a539cae53f5c13b51","3092.39999999851","","d","true","[[515,91],[271,1],[48,135],[15,394],[195,581],[455,556],[597,338]]","true","7","main_T2_Trial","d","img/Fire_Down_Target.gif","[""img/Fire_Up_Distractor.gif"",""img/Fire_Up_Distractor.gif"",""img/Fire_Up_Distractor.gif"",""img/Fire_Up_Distractor.gif"",""img/Fire_Up_Distractor.gif"",""img/Fire_Up_Distractor.gif"",""img/Fire_Up_Distractor.gif"",""img/Fire_Up_Distractor.gif"",""img/Fire_Up_Distractor.gif"",""img/Fire_Up_Distractor.gif"",""img/Fire_Up_Distractor.gif"",""img/Fire_Up_Distractor.gif""]","7","targetDown_distractorsUp"
"","","","","","html-keyboard-response","88","511161","0.0-14.0-0.0-0.37","5f513779f44f1533e7274c47","619531dcf66c91622fa1b861","6195961a539cae53f5c13b51","null","","null","","","","","main_T1_ITI","","","","",""
"","","","","","visual-search-circle","89","515546","0.0-14.0-0.0-1.37","5f513779f44f1533e7274c47","619531dcf66c91622fa1b861","6195961a539cae53f5c13b51","3360.89999999851","","s","false","[[207,14],[19,194],[42,453],[259,597],[507,516],[598,273],[465,49]]","true","7","main_T2_Trial","d","img/Fire_Up_Target.gif","[""img/Fire_Down_Distractor.gif"",""img/Fire_Down_Distractor.gif"",""img/Fire_Down_Distractor.gif"",""img/Fire_Down_Distractor.gif"",""img/Fire_Down_Distractor.gif"",""img/Fire_Down_Distractor.gif"",""img/Fire_Down_Distractor.gif"",""img/Fire_Down_Distractor.gif"",""img/Fire_Down_Distractor.gif"",""img/Fire_Down_Distractor.gif"",""img/Fire_Down_Distractor.gif"",""img/Fire_Down_Distractor.gif""]","7","targetUp_distractorsDown"
"","","","","","html-keyboard-response","90","515607","0.0-14.0-0.0-0.38","5f513779f44f1533e7274c47","619531dcf66c91622fa1b861","6195961a539cae53f5c13b51","null","","null","","","","","main_T1_ITI","","","","",""
"","","","","","visual-search-circle","91","524143","0.0-14.0-0.0-1.38","5f513779f44f1533e7274c47","619531dcf66c91622fa1b861","6195961a539cae53f5c13b51","7509.79999999702","","s","true","[[10,222],[136,551],[488,533],[580,192],[284,0]]","false","5","main_T2_Trial","s","img/Fire_Up_Target.gif","[""img/Fire_Down_Distractor.gif"",""img/Fire_Down_Distractor.gif"",""img/Fire_Down_Distractor.gif"",""img/Fire_Down_Distractor.gif"",""img/Fire_Down_Distractor.gif"",""img/Fire_Down_Distractor.gif"",""img/Fire_Down_Distractor.gif"",""img/Fire_Down_Distractor.gif"",""img/Fire_Down_Distractor.gif"",""img/Fire_Down_Distractor.gif"",""img/Fire_Down_Distractor.gif"",""img/Fire_Down_Distractor.gif""]","5","targetUp_distractorsDown"
"","","","","","html-keyboard-response","92","525561","0.0-14.0-0.0-0.39","5f513779f44f1533e7274c47","619531dcf66c91622fa1b861","6195961a539cae53f5c13b51","1413.8999999985099","Wow! You've completed 40 out of 160 trials! </p> <p>  </p><p> Take a quick break, then press any key when you're ready to continue."," ","","","","","main_T1_ITI","","","","",""
"","","","","","visual-search-circle","93","531417","0.0-14.0-0.0-1.39","5f513779f44f1533e7274c47","619531dcf66c91622fa1b861","6195961a539cae53f5c13b51","4836","","d","true","[[599,315],[407,19],[66,111],[48,463],[377,589]]","true","5","main_T2_Trial","d","img/Fire_Down_Target.gif","[""img/Fire_Up_Distractor.gif"",""img/Fire_Up_Distractor.gif"",""img/Fire_Up_Distractor.gif"",""img/Fire_Up_Distractor.gif"",""img/Fire_Up_Distractor.gif"",""img/Fire_Up_Distractor.gif"",""img/Fire_Up_Distractor.gif"",""img/Fire_Up_Distractor.gif"",""img/Fire_Up_Distractor.gif"",""img/Fire_Up_Distractor.gif"",""img/Fire_Up_Distractor.gif"",""img/Fire_Up_Distractor.gif""]","5","targetDown_distractorsUp"
"","","","","","html-keyboard-response","94","531464","0.0-14.0-0.0-0.40","5f513779f44f1533e7274c47","619531dcf66c91622fa1b861","6195961a539cae53f5c13b51","null","","null","","","","","main_T1_ITI","","","","",""
"","","","","","visual-search-circle","95","534092","0.0-14.0-0.0-1.40","5f513779f44f1533e7274c47","619531dcf66c91622fa1b861","6195961a539cae53f5c13b51","1605.5","","s","true","[[536,115],[336,2],[115,63],[2,263],[63,484],[263,597],[484,536],[597,336]]","false","8","main_T2_Trial","s","img/Fire_Up_Target.gif","[""img/Fire_Down_Distractor.gif"",""img/Fire_Down_Distractor.gif"",""img/Fire_Down_Distractor.gif"",""img/Fire_Down_Distractor.gif"",""img/Fire_Down_Distractor.gif"",""img/Fire_Down_Distractor.gif"",""img/Fire_Down_Distractor.gif"",""img/Fire_Down_Distractor.gif"",""img/Fire_Down_Distractor.gif"",""img/Fire_Down_Distractor.gif"",""img/Fire_Down_Distractor.gif"",""img/Fire_Down_Distractor.gif""]","8","targetUp_distractorsDown"
"","","","","","html-keyboard-response","96","534098","0.0-14.0-0.0-0.41","5f513779f44f1533e7274c47","619531dcf66c91622fa1b861","6195961a539cae53f5c13b51","null","","null","","","","","main_T1_ITI","","","","",""
"","","","","","visual-search-circle","97","542191","0.0-14.0-0.0-1.41","5f513779f44f1533e7274c47","619531dcf66c91622fa1b861","6195961a539cae53f5c13b51","7076.30000000447","","d","false","[[589,377],[377,10],[10,222],[222,589]]","false","4","main_T2_Trial","s","img/Fire_Up_Target.gif","[""img/Fire_Down_Distractor.gif"",""img/Fire_Down_Distractor.gif"",""img/Fire_Down_Distractor.gif"",""img/Fire_Down_Distractor.gif"",""img/Fire_Down_Distractor.gif"",""img/Fire_Down_Distractor.gif"",""img/Fire_Down_Distractor.gif"",""img/Fire_Down_Distractor.gif"",""img/Fire_Down_Distractor.gif"",""img/Fire_Down_Distractor.gif"",""img/Fire_Down_Distractor.gif"",""img/Fire_Down_Distractor.gif""]","4","targetUp_distractorsDown"
"","","","","","html-keyboard-response","98","542193","0.0-14.0-0.0-0.42","5f513779f44f1533e7274c47","619531dcf66c91622fa1b861","6195961a539cae53f5c13b51","null","","null","","","","","main_T1_ITI","","","","",""
"","","","","","visual-search-circle","99","548980","0.0-14.0-0.0-1.42","5f513779f44f1533e7274c47","619531dcf66c91622fa1b861","6195961a539cae53f5c13b51","5758.20000000298","","d","true","[[4,247],[54,472],[247,595],[472,545],[595,352],[545,127],[352,4],[127,54]]","true","8","main_T2_Trial","d","img/Fire_Up_Target.gif","[""img/Fire_Down_Distractor.gif"",""img/Fire_Down_Distractor.gif"",""img/Fire_Down_Distractor.gif"",""img/Fire_Down_Distractor.gif"",""img/Fire_Down_Distractor.gif"",""img/Fire_Down_Distractor.gif"",""img/Fire_Down_Distractor.gif"",""img/Fire_Down_Distractor.gif"",""img/Fire_Down_Distractor.gif"",""img/Fire_Down_Distractor.gif"",""img/Fire_Down_Distractor.gif"",""img/Fire_Down_Distractor.gif""]","8","targetUp_distractorsDown"
"","","","","","html-keyboard-response","100","549112","0.0-14.0-0.0-0.43","5f513779f44f1533e7274c47","619531dcf66c91622fa1b861","6195961a539cae53f5c13b51","null","","null","","","","","main_T1_ITI","","","","",""
"","","","","","visual-search-circle","101","553689","0.0-14.0-0.0-1.43","5f513779f44f1533e7274c47","619531dcf66c91622fa1b861","6195961a539cae53f5c13b51","3548.5","","s","true","[[522,99],[237,6],[14,207],[77,500],[362,593],[585,392]]","false","6","main_T2_Trial","s","img/Fire_Down_Target.gif","[""img/Fire_Up_Distractor.gif"",""img/Fire_Up_Distractor.gif"",""img/Fire_Up_Distractor.gif"",""img/Fire_Up_Distractor.gif"",""img/Fire_Up_Distractor.gif"",""img/Fire_Up_Distractor.gif"",""img/Fire_Up_Distractor.gif"",""img/Fire_Up_Distractor.gif"",""img/Fire_Up_Distractor.gif"",""img/Fire_Up_Distractor.gif"",""img/Fire_Up_Distractor.gif"",""img/Fire_Up_Distractor.gif""]","6","targetDown_distractorsUp"
"","","","","","html-keyboard-response","102","553705","0.0-14.0-0.0-0.44","5f513779f44f1533e7274c47","619531dcf66c91622fa1b861","6195961a539cae53f5c13b51","null","","null","","","","","main_T1_ITI","","","","",""
"","","","","","visual-search-circle","103","556998","0.0-14.0-0.0-1.44","5f513779f44f1533e7274c47","619531dcf66c91622fa1b861","6195961a539cae53f5c13b51","2260.8000000044703","","s","true","[[597,341],[539,119],[341,2],[119,60],[2,258],[60,480],[258,597],[480,539]]","false","8","main_T2_Trial","s","img/Fire_Down_Target.gif","[""img/Fire_Up_Distractor.gif"",""img/Fire_Up_Distractor.gif"",""img/Fire_Up_Distractor.gif"",""img/Fire_Up_Distractor.gif"",""img/Fire_Up_Distractor.gif"",""img/Fire_Up_Distractor.gif"",""img/Fire_Up_Distractor.gif"",""img/Fire_Up_Distractor.gif"",""img/Fire_Up_Distractor.gif"",""img/Fire_Up_Distractor.gif"",""img/Fire_Up_Distractor.gif"",""img/Fire_Up_Distractor.gif""]","8","targetDown_distractorsUp"
"","","","","","html-keyboard-response","104","557001","0.0-14.0-0.0-0.45","5f513779f44f1533e7274c47","619531dcf66c91622fa1b861","6195961a539cae53f5c13b51","null","","null","","","","","main_T1_ITI","","","","",""
"","","","","","visual-search-circle","105","559652","0.0-14.0-0.0-1.45","5f513779f44f1533e7274c47","619531dcf66c91622fa1b861","6195961a539cae53f5c13b51","1639.2999999970198","","d","true","[[119,60],[16,397],[305,599],[586,387],[472,54]]","true","5","main_T2_Trial","d","img/Fire_Down_Target.gif","[""img/Fire_Up_Distractor.gif"",""img/Fire_Up_Distractor.gif"",""img/Fire_Up_Distractor.gif"",""img/Fire_Up_Distractor.gif"",""img/Fire_Up_Distractor.gif"",""img/Fire_Up_Distractor.gif"",""img/Fire_Up_Distractor.gif"",""img/Fire_Up_Distractor.gif"",""img/Fire_Up_Distractor.gif"",""img/Fire_Up_Distractor.gif"",""img/Fire_Up_Distractor.gif"",""img/Fire_Up_Distractor.gif""]","5","targetDown_distractorsUp"
"","","","","","html-keyboard-response","106","559697","0.0-14.0-0.0-0.46","5f513779f44f1533e7274c47","619531dcf66c91622fa1b861","6195961a539cae53f5c13b51","null","","null","","","","","main_T1_ITI","","","","",""
"","","","","","visual-search-circle","107","566716","0.0-14.0-0.0-1.46","5f513779f44f1533e7274c47","619531dcf66c91622fa1b861","6195961a539cae53f5c13b51","5992.4000000059605","","d","true","[[132,51],[0,276],[94,518],[343,596],[559,451],[579,191],[389,13]]","true","7","main_T2_Trial","d","img/Fire_Up_Target.gif","[""img/Fire_Down_Distractor.gif"",""img/Fire_Down_Distractor.gif"",""img/Fire_Down_Distractor.gif"",""img/Fire_Down_Distractor.gif"",""img/Fire_Down_Distractor.gif"",""img/Fire_Down_Distractor.gif"",""img/Fire_Down_Distractor.gif"",""img/Fire_Down_Distractor.gif"",""img/Fire_Down_Distractor.gif"",""img/Fire_Down_Distractor.gif"",""img/Fire_Down_Distractor.gif"",""img/Fire_Down_Distractor.gif""]","7","targetUp_distractorsDown"
"","","","","","html-keyboard-response","108","566724","0.0-14.0-0.0-0.47","5f513779f44f1533e7274c47","619531dcf66c91622fa1b861","6195961a539cae53f5c13b51","null","","null","","","","","main_T1_ITI","","","","",""
"","","","","","visual-search-circle","109","572915","0.0-14.0-0.0-1.47","5f513779f44f1533e7274c47","619531dcf66c91622fa1b861","6195961a539cae53f5c13b51","5175.89999999851","","d","false","[[472,545],[545,127],[127,54],[54,472]]","false","4","main_T2_Trial","s","img/Fire_Up_Target.gif","[""img/Fire_Down_Distractor.gif"",""img/Fire_Down_Distractor.gif"",""img/Fire_Down_Distractor.gif"",""img/Fire_Down_Distractor.gif"",""img/Fire_Down_Distractor.gif"",""img/Fire_Down_Distractor.gif"",""img/Fire_Down_Distractor.gif"",""img/Fire_Down_Distractor.gif"",""img/Fire_Down_Distractor.gif"",""img/Fire_Down_Distractor.gif"",""img/Fire_Down_Distractor.gif"",""img/Fire_Down_Distractor.gif""]","4","targetUp_distractorsDown"
"","","","","","html-keyboard-response","110","572925","0.0-14.0-0.0-0.48","5f513779f44f1533e7274c47","619531dcf66c91622fa1b861","6195961a539cae53f5c13b51","null","","null","","","","","main_T1_ITI","","","","",""
"","","","","","visual-search-circle","111","578280","0.0-14.0-0.0-1.48","5f513779f44f1533e7274c47","619531dcf66c91622fa1b861","6195961a539cae53f5c13b51","4326.29999999702","","s","false","[[87,87],[0,299],[87,512],[299,600],[512,512],[600,300],[512,87],[300,0]]","true","8","main_T2_Trial","d","img/Fire_Up_Target.gif","[""img/Fire_Down_Distractor.gif"",""img/Fire_Down_Distractor.gif"",""img/Fire_Down_Distractor.gif"",""img/Fire_Down_Distractor.gif"",""img/Fire_Down_Distractor.gif"",""img/Fire_Down_Distractor.gif"",""img/Fire_Down_Distractor.gif"",""img/Fire_Down_Distractor.gif"",""img/Fire_Down_Distractor.gif"",""img/Fire_Down_Distractor.gif"",""img/Fire_Down_Distractor.gif"",""img/Fire_Down_Distractor.gif""]","8","targetUp_distractorsDown"
"","","","","","html-keyboard-response","112","578304","0.0-14.0-0.0-0.49","5f513779f44f1533e7274c47","619531dcf66c91622fa1b861","6195961a539cae53f5c13b51","null","","null","","","","","main_T1_ITI","","","","",""
"","","","","","visual-search-circle","113","581375","0.0-14.0-0.0-1.49","5f513779f44f1533e7274c47","619531dcf66c91622fa1b861","6195961a539cae53f5c13b51","2048.2000000029802","","d","true","[[25,422],[422,574],[574,177],[177,25]]","true","4","main_T2_Trial","d","img/Fire_Down_Target.gif","[""img/Fire_Up_Distractor.gif"",""img/Fire_Up_Distractor.gif"",""img/Fire_Up_Distractor.gif"",""img/Fire_Up_Distractor.gif"",""img/Fire_Up_Distractor.gif"",""img/Fire_Up_Distractor.gif"",""img/Fire_Up_Distractor.gif"",""img/Fire_Up_Distractor.gif"",""img/Fire_Up_Distractor.gif"",""img/Fire_Up_Distractor.gif"",""img/Fire_Up_Distractor.gif"",""img/Fire_Up_Distractor.gif""]","4","targetDown_distractorsUp"
"","","","","","html-keyboard-response","114","581386","0.0-14.0-0.0-0.50","5f513779f44f1533e7274c47","619531dcf66c91622fa1b861","6195961a539cae53f5c13b51","null","","null","","","","","main_T1_ITI","","","","",""
"","","","","","visual-search-circle","115","586800","0.0-14.0-0.0-1.50","5f513779f44f1533e7274c47","619531dcf66c91622fa1b861","6195961a539cae53f5c13b51","4394.30000000447","","s","true","[[227,591],[554,458],[529,107],[187,21],[0,320]]","false","5","main_T2_Trial","s","img/Fire_Up_Target.gif","[""img/Fire_Down_Distractor.gif"",""img/Fire_Down_Distractor.gif"",""img/Fire_Down_Distractor.gif"",""img/Fire_Down_Distractor.gif"",""img/Fire_Down_Distractor.gif"",""img/Fire_Down_Distractor.gif"",""img/Fire_Down_Distractor.gif"",""img/Fire_Down_Distractor.gif"",""img/Fire_Down_Distractor.gif"",""img/Fire_Down_Distractor.gif"",""img/Fire_Down_Distractor.gif"",""img/Fire_Down_Distractor.gif""]","5","targetUp_distractorsDown"
"","","","","","html-keyboard-response","116","586805","0.0-14.0-0.0-0.51","5f513779f44f1533e7274c47","619531dcf66c91622fa1b861","6195961a539cae53f5c13b51","null","","null","","","","","main_T1_ITI","","","","",""
"","","","","","visual-search-circle","117","589398","0.0-14.0-0.0-1.51","5f513779f44f1533e7274c47","619531dcf66c91622fa1b861","6195961a539cae53f5c13b51","1563.5999999940395","","d","true","[[37,154],[22,414],[216,588],[473,544],[599,317],[500,76],[250,4]]","true","7","main_T2_Trial","d","img/Fire_Down_Target.gif","[""img/Fire_Up_Distractor.gif"",""img/Fire_Up_Distractor.gif"",""img/Fire_Up_Distractor.gif"",""img/Fire_Up_Distractor.gif"",""img/Fire_Up_Distractor.gif"",""img/Fire_Up_Distractor.gif"",""img/Fire_Up_Distractor.gif"",""img/Fire_Up_Distractor.gif"",""img/Fire_Up_Distractor.gif"",""img/Fire_Up_Distractor.gif"",""img/Fire_Up_Distractor.gif"",""img/Fire_Up_Distractor.gif""]","7","targetDown_distractorsUp"
"","","","","","html-keyboard-response","118","589416","0.0-14.0-0.0-0.52","5f513779f44f1533e7274c47","619531dcf66c91622fa1b861","6195961a539cae53f5c13b51","null","","null","","","","","main_T1_ITI","","","","",""
"","","","","","visual-search-circle","119","592275","0.0-14.0-0.0-1.52","5f513779f44f1533e7274c47","619531dcf66c91622fa1b861","6195961a539cae53f5c13b51","1836.5999999940395","","d","true","[[253,3],[19,192],[66,488],[346,596],[580,407],[533,111]]","true","6","main_T2_Trial","d","img/Fire_Down_Target.gif","[""img/Fire_Up_Distractor.gif"",""img/Fire_Up_Distractor.gif"",""img/Fire_Up_Distractor.gif"",""img/Fire_Up_Distractor.gif"",""img/Fire_Up_Distractor.gif"",""img/Fire_Up_Distractor.gif"",""img/Fire_Up_Distractor.gif"",""img/Fire_Up_Distractor.gif"",""img/Fire_Up_Distractor.gif"",""img/Fire_Up_Distractor.gif"",""img/Fire_Up_Distractor.gif"",""img/Fire_Up_Distractor.gif""]","6","targetDown_distractorsUp"
"","","","","","html-keyboard-response","120","592288","0.0-14.0-0.0-0.53","5f513779f44f1533e7274c47","619531dcf66c91622fa1b861","6195961a539cae53f5c13b51","null","","null","","","","","main_T1_ITI","","","","",""
"","","","","","visual-search-circle","121","595716","0.0-14.0-0.0-1.53","5f513779f44f1533e7274c47","619531dcf66c91622fa1b861","6195961a539cae53f5c13b51","2407.4000000059605","","s","true","[[10,222],[40,450],[222,589],[450,559],[589,377],[559,150],[377,10],[150,40]]","false","8","main_T2_Trial","s","img/Fire_Down_Target.gif","[""img/Fire_Up_Distractor.gif"",""img/Fire_Up_Distractor.gif"",""img/Fire_Up_Distractor.gif"",""img/Fire_Up_Distractor.gif"",""img/Fire_Up_Distractor.gif"",""img/Fire_Up_Distractor.gif"",""img/Fire_Up_Distractor.gif"",""img/Fire_Up_Distractor.gif"",""img/Fire_Up_Distractor.gif"",""img/Fire_Up_Distractor.gif"",""img/Fire_Up_Distractor.gif"",""img/Fire_Up_Distractor.gif""]","8","targetDown_distractorsUp"
"","","","","","html-keyboard-response","122","595750","0.0-14.0-0.0-0.54","5f513779f44f1533e7274c47","619531dcf66c91622fa1b861","6195961a539cae53f5c13b51","null","","null","","","","","main_T1_ITI","","","","",""
"","","","","","visual-search-circle","123","607442","0.0-14.0-0.0-1.54","5f513779f44f1533e7274c47","619531dcf66c91622fa1b861","6195961a539cae53f5c13b51","10669","","d","true","[[192,580],[488,533],[596,253],[407,19],[111,66],[3,346]]","true","6","main_T2_Trial","d","img/Fire_Up_Target.gif","[""img/Fire_Down_Distractor.gif"",""img/Fire_Down_Distractor.gif"",""img/Fire_Down_Distractor.gif"",""img/Fire_Down_Distractor.gif"",""img/Fire_Down_Distractor.gif"",""img/Fire_Down_Distractor.gif"",""img/Fire_Down_Distractor.gif"",""img/Fire_Down_Distractor.gif"",""img/Fire_Down_Distractor.gif"",""img/Fire_Down_Distractor.gif"",""img/Fire_Down_Distractor.gif"",""img/Fire_Down_Distractor.gif""]","6","targetUp_distractorsDown"
"","","","","","html-keyboard-response","124","607497","0.0-14.0-0.0-0.55","5f513779f44f1533e7274c47","619531dcf66c91622fa1b861","6195961a539cae53f5c13b51","null","","null","","","","","main_T1_ITI","","","","",""
"","","","","","visual-search-circle","125","614375","0.0-14.0-0.0-1.55","5f513779f44f1533e7274c47","619531dcf66c91622fa1b861","6195961a539cae53f5c13b51","5853.9000000059605","","s","true","[[422,25],[123,57],[1,331],[177,574],[476,542],[598,268]]","false","6","main_T2_Trial","s","img/Fire_Down_Target.gif","[""img/Fire_Up_Distractor.gif"",""img/Fire_Up_Distractor.gif"",""img/Fire_Up_Distractor.gif"",""img/Fire_Up_Distractor.gif"",""img/Fire_Up_Distractor.gif"",""img/Fire_Up_Distractor.gif"",""img/Fire_Up_Distractor.gif"",""img/Fire_Up_Distractor.gif"",""img/Fire_Up_Distractor.gif"",""img/Fire_Up_Distractor.gif"",""img/Fire_Up_Distractor.gif"",""img/Fire_Up_Distractor.gif""]","6","targetDown_distractorsUp"
"","","","","","html-keyboard-response","126","614383","0.0-14.0-0.0-0.56","5f513779f44f1533e7274c47","619531dcf66c91622fa1b861","6195961a539cae53f5c13b51","null","","null","","","","","main_T1_ITI","","","","",""
"","","","","","visual-search-circle","127","620416","0.0-14.0-0.0-1.56","5f513779f44f1533e7274c47","619531dcf66c91622fa1b861","6195961a539cae53f5c13b51","5007.89999999851","","s","true","[[567,163],[360,6],[107,69],[0,306],[118,538],[373,590],[573,424]]","false","7","main_T2_Trial","s","img/Fire_Up_Target.gif","[""img/Fire_Down_Distractor.gif"",""img/Fire_Down_Distractor.gif"",""img/Fire_Down_Distractor.gif"",""img/Fire_Down_Distractor.gif"",""img/Fire_Down_Distractor.gif"",""img/Fire_Down_Distractor.gif"",""img/Fire_Down_Distractor.gif"",""img/Fire_Down_Distractor.gif"",""img/Fire_Down_Distractor.gif"",""img/Fire_Down_Distractor.gif"",""img/Fire_Down_Distractor.gif"",""img/Fire_Down_Distractor.gif""]","7","targetUp_distractorsDown"
"","","","","","html-keyboard-response","128","620424","0.0-14.0-0.0-0.57","5f513779f44f1533e7274c47","619531dcf66c91622fa1b861","6195961a539cae53f5c13b51","null","","null","","","","","main_T1_ITI","","","","",""
"","","","","","visual-search-circle","129","625450","0.0-14.0-0.0-1.57","5f513779f44f1533e7274c47","619531dcf66c91622fa1b861","6195961a539cae53f5c13b51","4013.10000000149","","s","true","[[253,3],[3,253],[163,567],[512,512],[567,163]]","false","5","main_T2_Trial","s","img/Fire_Up_Target.gif","[""img/Fire_Down_Distractor.gif"",""img/Fire_Down_Distractor.gif"",""img/Fire_Down_Distractor.gif"",""img/Fire_Down_Distractor.gif"",""img/Fire_Down_Distractor.gif"",""img/Fire_Down_Distractor.gif"",""img/Fire_Down_Distractor.gif"",""img/Fire_Down_Distractor.gif"",""img/Fire_Down_Distractor.gif"",""img/Fire_Down_Distractor.gif"",""img/Fire_Down_Distractor.gif"",""img/Fire_Down_Distractor.gif""]","5","targetUp_distractorsDown"
"","","","","","html-keyboard-response","130","625494","0.0-14.0-0.0-0.58","5f513779f44f1533e7274c47","619531dcf66c91622fa1b861","6195961a539cae53f5c13b51","null","","null","","","","","main_T1_ITI","","","","",""
"","","","","","visual-search-circle","131","630330","0.0-14.0-0.0-1.58","5f513779f44f1533e7274c47","619531dcf66c91622fa1b861","6195961a539cae53f5c13b51","3807.10000000149","","s","true","[[326,1],[82,93],[2,341],[146,557],[406,580],[585,391],[549,134]]","false","7","main_T2_Trial","s","img/Fire_Up_Target.gif","[""img/Fire_Down_Distractor.gif"",""img/Fire_Down_Distractor.gif"",""img/Fire_Down_Distractor.gif"",""img/Fire_Down_Distractor.gif"",""img/Fire_Down_Distractor.gif"",""img/Fire_Down_Distractor.gif"",""img/Fire_Down_Distractor.gif"",""img/Fire_Down_Distractor.gif"",""img/Fire_Down_Distractor.gif"",""img/Fire_Down_Distractor.gif"",""img/Fire_Down_Distractor.gif"",""img/Fire_Down_Distractor.gif""]","7","targetUp_distractorsDown"
"","","","","","html-keyboard-response","132","648211","0.0-14.0-0.0-0.59","5f513779f44f1533e7274c47","619531dcf66c91622fa1b861","6195961a539cae53f5c13b51","17877.5","Wow! You've completed 60 out of 160 trials! </p> <p>  </p><p> Take a quick break, then press any key when you're ready to continue."," ","","","","","main_T1_ITI","","","","",""
"","","","","","visual-search-circle","133","657028","0.0-14.0-0.0-1.59","5f513779f44f1533e7274c47","619531dcf66c91622fa1b861","6195961a539cae53f5c13b51","7787.89999999851","","d","false","[[173,571],[433,568],[593,363],[532,110],[296,0],[63,115],[8,370]]","false","7","main_T2_Trial","s","img/Fire_Up_Target.gif","[""img/Fire_Down_Distractor.gif"",""img/Fire_Down_Distractor.gif"",""img/Fire_Down_Distractor.gif"",""img/Fire_Down_Distractor.gif"",""img/Fire_Down_Distractor.gif"",""img/Fire_Down_Distractor.gif"",""img/Fire_Down_Distractor.gif"",""img/Fire_Down_Distractor.gif"",""img/Fire_Down_Distractor.gif"",""img/Fire_Down_Distractor.gif"",""img/Fire_Down_Distractor.gif"",""img/Fire_Down_Distractor.gif""]","7","targetUp_distractorsDown"
"","","","","","html-keyboard-response","134","657060","0.0-14.0-0.0-0.60","5f513779f44f1533e7274c47","619531dcf66c91622fa1b861","6195961a539cae53f5c13b51","null","","null","","","","","main_T1_ITI","","","","",""
"","","","","","visual-search-circle","135","668994","0.0-14.0-0.0-1.60","5f513779f44f1533e7274c47","619531dcf66c91622fa1b861","6195961a539cae53f5c13b51","10913","","d","false","[[19,192],[66,488],[346,596],[580,407],[533,111],[253,3]]","false","6","main_T2_Trial","s","img/Fire_Down_Target.gif","[""img/Fire_Up_Distractor.gif"",""img/Fire_Up_Distractor.gif"",""img/Fire_Up_Distractor.gif"",""img/Fire_Up_Distractor.gif"",""img/Fire_Up_Distractor.gif"",""img/Fire_Up_Distractor.gif"",""img/Fire_Up_Distractor.gif"",""img/Fire_Up_Distractor.gif"",""img/Fire_Up_Distractor.gif"",""img/Fire_Up_Distractor.gif"",""img/Fire_Up_Distractor.gif"",""img/Fire_Up_Distractor.gif""]","6","targetDown_distractorsUp"
"","","","","","html-keyboard-response","136","669716","0.0-14.0-0.0-0.61","5f513779f44f1533e7274c47","619531dcf66c91622fa1b861","6195961a539cae53f5c13b51","null","","null","","","","","main_T1_ITI","","","","",""
"","","","","","visual-search-circle","137","675400","0.0-14.0-0.0-1.61","5f513779f44f1533e7274c47","619531dcf66c91622fa1b861","6195961a539cae53f5c13b51","4659.70000000298","","s","true","[[372,8],[8,227],[227,591],[591,372]]","false","4","main_T2_Trial","s","img/Fire_Up_Target.gif","[""img/Fire_Down_Distractor.gif"",""img/Fire_Down_Distractor.gif"",""img/Fire_Down_Distractor.gif"",""img/Fire_Down_Distractor.gif"",""img/Fire_Down_Distractor.gif"",""img/Fire_Down_Distractor.gif"",""img/Fire_Down_Distractor.gif"",""img/Fire_Down_Distractor.gif"",""img/Fire_Down_Distractor.gif"",""img/Fire_Down_Distractor.gif"",""img/Fire_Down_Distractor.gif"",""img/Fire_Down_Distractor.gif""]","4","targetUp_distractorsDown"
"","","","","","html-keyboard-response","138","675404","0.0-14.0-0.0-0.62","5f513779f44f1533e7274c47","619531dcf66c91622fa1b861","6195961a539cae53f5c13b51","null","","null","","","","","main_T1_ITI","","","","",""
"","","","","","visual-search-circle","139","679991","0.0-14.0-0.0-1.62","5f513779f44f1533e7274c47","619531dcf66c91622fa1b861","6195961a539cae53f5c13b51","3553.2000000029802","","d","true","[[569,431],[583,202],[431,30],[202,16],[30,168],[16,397],[168,569],[397,583]]","true","8","main_T2_Trial","d","img/Fire_Up_Target.gif","[""img/Fire_Down_Distractor.gif"",""img/Fire_Down_Distractor.gif"",""img/Fire_Down_Distractor.gif"",""img/Fire_Down_Distractor.gif"",""img/Fire_Down_Distractor.gif"",""img/Fire_Down_Distractor.gif"",""img/Fire_Down_Distractor.gif"",""img/Fire_Down_Distractor.gif"",""img/Fire_Down_Distractor.gif"",""img/Fire_Down_Distractor.gif"",""img/Fire_Down_Distractor.gif"",""img/Fire_Down_Distractor.gif""]","8","targetUp_distractorsDown"
"","","","","","html-keyboard-response","140","680043","0.0-14.0-0.0-0.63","5f513779f44f1533e7274c47","619531dcf66c91622fa1b861","6195961a539cae53f5c13b51","null","","null","","","","","main_T1_ITI","","","","",""
"","","","","","visual-search-circle","141","684486","0.0-14.0-0.0-1.63","5f513779f44f1533e7274c47","619531dcf66c91622fa1b861","6195961a539cae53f5c13b51","3423.3000000044703","","d","false","[[362,6],[6,237],[237,593],[593,362]]","false","4","main_T2_Trial","s","img/Fire_Down_Target.gif","[""img/Fire_Up_Distractor.gif"",""img/Fire_Up_Distractor.gif"",""img/Fire_Up_Distractor.gif"",""img/Fire_Up_Distractor.gif"",""img/Fire_Up_Distractor.gif"",""img/Fire_Up_Distractor.gif"",""img/Fire_Up_Distractor.gif"",""img/Fire_Up_Distractor.gif"",""img/Fire_Up_Distractor.gif"",""img/Fire_Up_Distractor.gif"",""img/Fire_Up_Distractor.gif"",""img/Fire_Up_Distractor.gif""]","4","targetDown_distractorsUp"
"","","","","","html-keyboard-response","142","684519","0.0-14.0-0.0-0.64","5f513779f44f1533e7274c47","619531dcf66c91622fa1b861","6195961a539cae53f5c13b51","null","","null","","","","","main_T1_ITI","","","","",""
"","","","","","visual-search-circle","143","690484","0.0-14.0-0.0-1.64","5f513779f44f1533e7274c47","619531dcf66c91622fa1b861","6195961a539cae53f5c13b51","4936.69999999553","","d","true","[[21,187],[23,417],[187,578],[417,576],[578,412],[576,182],[412,21],[182,23]]","true","8","main_T2_Trial","d","img/Fire_Down_Target.gif","[""img/Fire_Up_Distractor.gif"",""img/Fire_Up_Distractor.gif"",""img/Fire_Up_Distractor.gif"",""img/Fire_Up_Distractor.gif"",""img/Fire_Up_Distractor.gif"",""img/Fire_Up_Distractor.gif"",""img/Fire_Up_Distractor.gif"",""img/Fire_Up_Distractor.gif"",""img/Fire_Up_Distractor.gif"",""img/Fire_Up_Distractor.gif"",""img/Fire_Up_Distractor.gif"",""img/Fire_Up_Distractor.gif""]","8","targetDown_distractorsUp"
"","","","","","html-keyboard-response","144","690529","0.0-14.0-0.0-0.65","5f513779f44f1533e7274c47","619531dcf66c91622fa1b861","6195961a539cae53f5c13b51","null","","null","","","","","main_T1_ITI","","","","",""
"","","","","","visual-search-circle","145","694024","0.0-14.0-0.0-1.65","5f513779f44f1533e7274c47","619531dcf66c91622fa1b861","6195961a539cae53f5c13b51","2466.8000000044703","","d","true","[[48,463],[315,599],[567,436],[551,136],[284,0],[32,163]]","true","6","main_T2_Trial","d","img/Fire_Up_Target.gif","[""img/Fire_Down_Distractor.gif"",""img/Fire_Down_Distractor.gif"",""img/Fire_Down_Distractor.gif"",""img/Fire_Down_Distractor.gif"",""img/Fire_Down_Distractor.gif"",""img/Fire_Down_Distractor.gif"",""img/Fire_Down_Distractor.gif"",""img/Fire_Down_Distractor.gif"",""img/Fire_Down_Distractor.gif"",""img/Fire_Down_Distractor.gif"",""img/Fire_Down_Distractor.gif"",""img/Fire_Down_Distractor.gif""]","6","targetUp_distractorsDown"
"","","","","","html-keyboard-response","146","694117","0.0-14.0-0.0-0.66","5f513779f44f1533e7274c47","619531dcf66c91622fa1b861","6195961a539cae53f5c13b51","null","","null","","","","","main_T1_ITI","","","","",""
"","","","","","visual-search-circle","147","697388","0.0-14.0-0.0-1.66","5f513779f44f1533e7274c47","619531dcf66c91622fa1b861","6195961a539cae53f5c13b51","2241.2999999970198","","d","true","[[42,145],[18,404],[206,585],[464,550],[598,327],[507,83],[260,2]]","true","7","main_T2_Trial","d","img/Fire_Up_Target.gif","[""img/Fire_Down_Distractor.gif"",""img/Fire_Down_Distractor.gif"",""img/Fire_Down_Distractor.gif"",""img/Fire_Down_Distractor.gif"",""img/Fire_Down_Distractor.gif"",""img/Fire_Down_Distractor.gif"",""img/Fire_Down_Distractor.gif"",""img/Fire_Down_Distractor.gif"",""img/Fire_Down_Distractor.gif"",""img/Fire_Down_Distractor.gif"",""img/Fire_Down_Distractor.gif"",""img/Fire_Down_Distractor.gif""]","7","targetUp_distractorsDown"
"","","","","","html-keyboard-response","148","697477","0.0-14.0-0.0-0.67","5f513779f44f1533e7274c47","619531dcf66c91622fa1b861","6195961a539cae53f5c13b51","null","","null","","","","","main_T1_ITI","","","","",""
"","","","","","visual-search-circle","149","702259","0.0-14.0-0.0-1.67","5f513779f44f1533e7274c47","619531dcf66c91622fa1b861","6195961a539cae53f5c13b51","3757.89999999851","","d","false","[[476,542],[585,207],[300,0],[14,207],[123,542]]","false","5","main_T2_Trial","s","img/Fire_Down_Target.gif","[""img/Fire_Up_Distractor.gif"",""img/Fire_Up_Distractor.gif"",""img/Fire_Up_Distractor.gif"",""img/Fire_Up_Distractor.gif"",""img/Fire_Up_Distractor.gif"",""img/Fire_Up_Distractor.gif"",""img/Fire_Up_Distractor.gif"",""img/Fire_Up_Distractor.gif"",""img/Fire_Up_Distractor.gif"",""img/Fire_Up_Distractor.gif"",""img/Fire_Up_Distractor.gif"",""img/Fire_Up_Distractor.gif""]","5","targetDown_distractorsUp"
"","","","","","html-keyboard-response","150","702296","0.0-14.0-0.0-0.68","5f513779f44f1533e7274c47","619531dcf66c91622fa1b861","6195961a539cae53f5c13b51","null","","null","","","","","main_T1_ITI","","","","",""
"","","","","","visual-search-circle","151","710286","0.0-14.0-0.0-1.68","5f513779f44f1533e7274c47","619531dcf66c91622fa1b861","6195961a539cae53f5c13b51","6962.79999999702","","d","true","[[159,564],[419,575],[589,378],[541,122],[311,0],[73,103],[5,355]]","true","7","main_T2_Trial","d","img/Fire_Up_Target.gif","[""img/Fire_Down_Distractor.gif"",""img/Fire_Down_Distractor.gif"",""img/Fire_Down_Distractor.gif"",""img/Fire_Down_Distractor.gif"",""img/Fire_Down_Distractor.gif"",""img/Fire_Down_Distractor.gif"",""img/Fire_Down_Distractor.gif"",""img/Fire_Down_Distractor.gif"",""img/Fire_Down_Distractor.gif"",""img/Fire_Down_Distractor.gif"",""img/Fire_Down_Distractor.gif"",""img/Fire_Down_Distractor.gif""]","7","targetUp_distractorsDown"
"","","","","","html-keyboard-response","152","710390","0.0-14.0-0.0-0.69","5f513779f44f1533e7274c47","619531dcf66c91622fa1b861","6195961a539cae53f5c13b51","null","","null","","","","","main_T1_ITI","","","","",""
"","","","","","visual-search-circle","153","713637","0.0-14.0-0.0-1.69","5f513779f44f1533e7274c47","619531dcf66c91622fa1b861","6195961a539cae53f5c13b51","2208","","s","true","[[512,512],[600,300],[512,87],[300,0],[87,87],[0,299],[87,512],[299,600]]","false","8","main_T2_Trial","s","img/Fire_Down_Target.gif","[""img/Fire_Up_Distractor.gif"",""img/Fire_Up_Distractor.gif"",""img/Fire_Up_Distractor.gif"",""img/Fire_Up_Distractor.gif"",""img/Fire_Up_Distractor.gif"",""img/Fire_Up_Distractor.gif"",""img/Fire_Up_Distractor.gif"",""img/Fire_Up_Distractor.gif"",""img/Fire_Up_Distractor.gif"",""img/Fire_Up_Distractor.gif"",""img/Fire_Up_Distractor.gif"",""img/Fire_Up_Distractor.gif""]","8","targetDown_distractorsUp"
"","","","","","html-keyboard-response","154","713643","0.0-14.0-0.0-0.70","5f513779f44f1533e7274c47","619531dcf66c91622fa1b861","6195961a539cae53f5c13b51","null","","null","","","","","main_T1_ITI","","","","",""
"","","","","","visual-search-circle","155","719478","0.0-14.0-0.0-1.70","5f513779f44f1533e7274c47","619531dcf66c91622fa1b861","6195961a539cae53f5c13b51","4812.79999999702","","d","true","[[367,592],[598,326],[417,23],[73,103],[42,454]]","true","5","main_T2_Trial","d","img/Fire_Down_Target.gif","[""img/Fire_Up_Distractor.gif"",""img/Fire_Up_Distractor.gif"",""img/Fire_Up_Distractor.gif"",""img/Fire_Up_Distractor.gif"",""img/Fire_Up_Distractor.gif"",""img/Fire_Up_Distractor.gif"",""img/Fire_Up_Distractor.gif"",""img/Fire_Up_Distractor.gif"",""img/Fire_Up_Distractor.gif"",""img/Fire_Up_Distractor.gif"",""img/Fire_Up_Distractor.gif"",""img/Fire_Up_Distractor.gif""]","5","targetDown_distractorsUp"
"","","","","","html-keyboard-response","156","719599","0.0-14.0-0.0-0.71","5f513779f44f1533e7274c47","619531dcf66c91622fa1b861","6195961a539cae53f5c13b51","null","","null","","","","","main_T1_ITI","","","","",""
"","","","","","visual-search-circle","157","722858","0.0-14.0-0.0-1.71","5f513779f44f1533e7274c47","619531dcf66c91622fa1b861","6195961a539cae53f5c13b51","2242.3000000044703","","d","true","[[8,372],[279,599],[578,412],[492,70],[141,45]]","true","5","main_T2_Trial","d","img/Fire_Up_Target.gif","[""img/Fire_Down_Distractor.gif"",""img/Fire_Down_Distractor.gif"",""img/Fire_Down_Distractor.gif"",""img/Fire_Down_Distractor.gif"",""img/Fire_Down_Distractor.gif"",""img/Fire_Down_Distractor.gif"",""img/Fire_Down_Distractor.gif"",""img/Fire_Down_Distractor.gif"",""img/Fire_Down_Distractor.gif"",""img/Fire_Down_Distractor.gif"",""img/Fire_Down_Distractor.gif"",""img/Fire_Down_Distractor.gif""]","5","targetUp_distractorsDown"
"","","","","","html-keyboard-response","158","722882","0.0-14.0-0.0-0.72","5f513779f44f1533e7274c47","619531dcf66c91622fa1b861","6195961a539cae53f5c13b51","null","","null","","","","","main_T1_ITI","","","","",""
"","","","","","visual-search-circle","159","729895","0.0-14.0-0.0-1.72","5f513779f44f1533e7274c47","619531dcf66c91622fa1b861","6195961a539cae53f5c13b51","5980.89999999851","","s","true","[[70,107],[1,326],[107,529],[326,598],[529,492],[598,273],[492,70],[273,1]]","false","8","main_T2_Trial","s","img/Fire_Down_Target.gif","[""img/Fire_Up_Distractor.gif"",""img/Fire_Up_Distractor.gif"",""img/Fire_Up_Distractor.gif"",""img/Fire_Up_Distractor.gif"",""img/Fire_Up_Distractor.gif"",""img/Fire_Up_Distractor.gif"",""img/Fire_Up_Distractor.gif"",""img/Fire_Up_Distractor.gif"",""img/Fire_Up_Distractor.gif"",""img/Fire_Up_Distractor.gif"",""img/Fire_Up_Distractor.gif"",""img/Fire_Up_Distractor.gif""]","8","targetDown_distractorsUp"
"","","","","","html-keyboard-response","160","729899","0.0-14.0-0.0-0.73","5f513779f44f1533e7274c47","619531dcf66c91622fa1b861","6195961a539cae53f5c13b51","null","","null","","","","","main_T1_ITI","","","","",""
"","","","","","visual-search-circle","161","732746","0.0-14.0-0.0-1.73","5f513779f44f1533e7274c47","619531dcf66c91622fa1b861","6195961a539cae53f5c13b51","1827.5","","d","true","[[6,362],[268,598],[574,422],[500,77],[150,40]]","true","5","main_T2_Trial","d","img/Fire_Up_Target.gif","[""img/Fire_Down_Distractor.gif"",""img/Fire_Down_Distractor.gif"",""img/Fire_Down_Distractor.gif"",""img/Fire_Down_Distractor.gif"",""img/Fire_Down_Distractor.gif"",""img/Fire_Down_Distractor.gif"",""img/Fire_Down_Distractor.gif"",""img/Fire_Down_Distractor.gif"",""img/Fire_Down_Distractor.gif"",""img/Fire_Down_Distractor.gif"",""img/Fire_Down_Distractor.gif"",""img/Fire_Down_Distractor.gif""]","5","targetUp_distractorsDown"
"","","","","","html-keyboard-response","162","732764","0.0-14.0-0.0-0.74","5f513779f44f1533e7274c47","619531dcf66c91622fa1b861","6195961a539cae53f5c13b51","null","","null","","","","","main_T1_ITI","","","","",""
"","","","","","visual-search-circle","163","746493","0.0-14.0-0.0-1.74","5f513779f44f1533e7274c47","619531dcf66c91622fa1b861","6195961a539cae53f5c13b51","12703.19999999553","","d","false","[[422,25],[161,33],[5,242],[71,493],[308,599],[540,479],[590,224]]","false","7","main_T2_Trial","s","img/Fire_Down_Target.gif","[""img/Fire_Up_Distractor.gif"",""img/Fire_Up_Distractor.gif"",""img/Fire_Up_Distractor.gif"",""img/Fire_Up_Distractor.gif"",""img/Fire_Up_Distractor.gif"",""img/Fire_Up_Distractor.gif"",""img/Fire_Up_Distractor.gif"",""img/Fire_Up_Distractor.gif"",""img/Fire_Up_Distractor.gif"",""img/Fire_Up_Distractor.gif"",""img/Fire_Up_Distractor.gif"",""img/Fire_Up_Distractor.gif""]","7","targetDown_distractorsUp"
"","","","","","html-keyboard-response","164","746496","0.0-14.0-0.0-0.75","5f513779f44f1533e7274c47","619531dcf66c91622fa1b861","6195961a539cae53f5c13b51","null","","null","","","","","main_T1_ITI","","","","",""
"","","","","","visual-search-circle","165","753890","0.0-14.0-0.0-1.75","5f513779f44f1533e7274c47","619531dcf66c91622fa1b861","6195961a539cae53f5c13b51","6372.5","","s","true","[[192,19],[3,253],[111,533],[407,580],[596,346],[488,66]]","false","6","main_T2_Trial","s","img/Fire_Up_Target.gif","[""img/Fire_Down_Distractor.gif"",""img/Fire_Down_Distractor.gif"",""img/Fire_Down_Distractor.gif"",""img/Fire_Down_Distractor.gif"",""img/Fire_Down_Distractor.gif"",""img/Fire_Down_Distractor.gif"",""img/Fire_Down_Distractor.gif"",""img/Fire_Down_Distractor.gif"",""img/Fire_Down_Distractor.gif"",""img/Fire_Down_Distractor.gif"",""img/Fire_Down_Distractor.gif"",""img/Fire_Down_Distractor.gif""]","6","targetUp_distractorsDown"
"","","","","","html-keyboard-response","166","753935","0.0-14.0-0.0-0.76","5f513779f44f1533e7274c47","619531dcf66c91622fa1b861","6195961a539cae53f5c13b51","null","","null","","","","","main_T1_ITI","","","","",""
"","","","","","visual-search-circle","167","757699","0.0-14.0-0.0-1.76","5f513779f44f1533e7274c47","619531dcf66c91622fa1b861","6195961a539cae53f5c13b51","2743.5","","s","true","[[48,136],[32,436],[284,599],[551,463],[567,163],[315,0]]","false","6","main_T2_Trial","s","img/Fire_Down_Target.gif","[""img/Fire_Up_Distractor.gif"",""img/Fire_Up_Distractor.gif"",""img/Fire_Up_Distractor.gif"",""img/Fire_Up_Distractor.gif"",""img/Fire_Up_Distractor.gif"",""img/Fire_Up_Distractor.gif"",""img/Fire_Up_Distractor.gif"",""img/Fire_Up_Distractor.gif"",""img/Fire_Up_Distractor.gif"",""img/Fire_Up_Distractor.gif"",""img/Fire_Up_Distractor.gif"",""img/Fire_Up_Distractor.gif""]","6","targetDown_distractorsUp"
"","","","","","html-keyboard-response","168","757705","0.0-14.0-0.0-0.77","5f513779f44f1533e7274c47","619531dcf66c91622fa1b861","6195961a539cae53f5c13b51","null","","null","","","","","main_T1_ITI","","","","",""
"","","","","","visual-search-circle","169","761120","0.0-14.0-0.0-1.77","5f513779f44f1533e7274c47","619531dcf66c91622fa1b861","6195961a539cae53f5c13b51","2385.7000000029802","","d","true","[[54,127],[28,426],[273,598],[545,472],[571,173],[326,1]]","true","6","main_T2_Trial","d","img/Fire_Up_Target.gif","[""img/Fire_Down_Distractor.gif"",""img/Fire_Down_Distractor.gif"",""img/Fire_Down_Distractor.gif"",""img/Fire_Down_Distractor.gif"",""img/Fire_Down_Distractor.gif"",""img/Fire_Down_Distractor.gif"",""img/Fire_Down_Distractor.gif"",""img/Fire_Down_Distractor.gif"",""img/Fire_Down_Distractor.gif"",""img/Fire_Down_Distractor.gif"",""img/Fire_Down_Distractor.gif"",""img/Fire_Down_Distractor.gif""]","6","targetUp_distractorsDown"
"","","","","","html-keyboard-response","170","761128","0.0-14.0-0.0-0.78","5f513779f44f1533e7274c47","619531dcf66c91622fa1b861","6195961a539cae53f5c13b51","null","","null","","","","","main_T1_ITI","","","","",""
"","","","","","visual-search-circle","171","764905","0.0-14.0-0.0-1.78","5f513779f44f1533e7274c47","619531dcf66c91622fa1b861","6195961a539cae53f5c13b51","2749.4000000059605","","d","true","[[136,551],[394,584],[581,403],[556,144],[338,2],[91,84],[1,329]]","true","7","main_T2_Trial","d","img/Fire_Up_Target.gif","[""img/Fire_Down_Distractor.gif"",""img/Fire_Down_Distractor.gif"",""img/Fire_Down_Distractor.gif"",""img/Fire_Down_Distractor.gif"",""img/Fire_Down_Distractor.gif"",""img/Fire_Down_Distractor.gif"",""img/Fire_Down_Distractor.gif"",""img/Fire_Down_Distractor.gif"",""img/Fire_Down_Distractor.gif"",""img/Fire_Down_Distractor.gif"",""img/Fire_Down_Distractor.gif"",""img/Fire_Down_Distractor.gif""]","7","targetUp_distractorsDown"
"","","","","","html-keyboard-response","172","780787","0.0-14.0-0.0-0.79","5f513779f44f1533e7274c47","619531dcf66c91622fa1b861","6195961a539cae53f5c13b51","15878.10000000149","Wow! You've completed 80 out of 160 trials! </p> <p>  </p><p> Take a quick break, then press any key when you're ready to continue."," ","","","","","main_T1_ITI","","","","",""
"","","","","","visual-search-circle","173","783465","0.0-14.0-0.0-1.79","5f513779f44f1533e7274c47","619531dcf66c91622fa1b861","6195961a539cae53f5c13b51","1655.2999999970198","","d","false","[[119,539],[472,545],[586,212],[305,0],[16,202]]","false","5","main_T2_Trial","s","img/Fire_Down_Target.gif","[""img/Fire_Up_Distractor.gif"",""img/Fire_Up_Distractor.gif"",""img/Fire_Up_Distractor.gif"",""img/Fire_Up_Distractor.gif"",""img/Fire_Up_Distractor.gif"",""img/Fire_Up_Distractor.gif"",""img/Fire_Up_Distractor.gif"",""img/Fire_Up_Distractor.gif"",""img/Fire_Up_Distractor.gif"",""img/Fire_Up_Distractor.gif"",""img/Fire_Up_Distractor.gif"",""img/Fire_Up_Distractor.gif""]","5","targetDown_distractorsUp"
"","","","","","html-keyboard-response","174","783500","0.0-14.0-0.0-0.80","5f513779f44f1533e7274c47","619531dcf66c91622fa1b861","6195961a539cae53f5c13b51","null","","null","","","","","main_T1_ITI","","","","",""
"","","","","","visual-search-circle","175","786874","0.0-14.0-0.0-1.80","5f513779f44f1533e7274c47","619531dcf66c91622fa1b861","6195961a539cae53f5c13b51","2350.7999999970198","","d","true","[[496,73],[145,42],[7,367],[273,598],[576,417]]","true","5","main_T2_Trial","d","img/Fire_Down_Target.gif","[""img/Fire_Up_Distractor.gif"",""img/Fire_Up_Distractor.gif"",""img/Fire_Up_Distractor.gif"",""img/Fire_Up_Distractor.gif"",""img/Fire_Up_Distractor.gif"",""img/Fire_Up_Distractor.gif"",""img/Fire_Up_Distractor.gif"",""img/Fire_Up_Distractor.gif"",""img/Fire_Up_Distractor.gif"",""img/Fire_Up_Distractor.gif"",""img/Fire_Up_Distractor.gif"",""img/Fire_Up_Distractor.gif""]","5","targetDown_distractorsUp"
"","","","","","html-keyboard-response","176","786940","0.0-14.0-0.0-0.81","5f513779f44f1533e7274c47","619531dcf66c91622fa1b861","6195961a539cae53f5c13b51","null","","null","","","","","main_T1_ITI","","","","",""
"","","","","","visual-search-circle","177","790141","0.0-14.0-0.0-1.81","5f513779f44f1533e7274c47","619531dcf66c91622fa1b861","6195961a539cae53f5c13b51","2177","","d","true","[[559,450],[589,222],[449,40],[222,10],[40,150],[10,377],[150,559],[377,589]]","true","8","main_T2_Trial","d","img/Fire_Down_Target.gif","[""img/Fire_Up_Distractor.gif"",""img/Fire_Up_Distractor.gif"",""img/Fire_Up_Distractor.gif"",""img/Fire_Up_Distractor.gif"",""img/Fire_Up_Distractor.gif"",""img/Fire_Up_Distractor.gif"",""img/Fire_Up_Distractor.gif"",""img/Fire_Up_Distractor.gif"",""img/Fire_Up_Distractor.gif"",""img/Fire_Up_Distractor.gif"",""img/Fire_Up_Distractor.gif"",""img/Fire_Up_Distractor.gif""]","8","targetDown_distractorsUp"
"","","","","","html-keyboard-response","178","790204","0.0-14.0-0.0-0.82","5f513779f44f1533e7274c47","619531dcf66c91622fa1b861","6195961a539cae53f5c13b51","null","","null","","","","","main_T1_ITI","","","","",""
"","","","","","visual-search-circle","179","793706","0.0-14.0-0.0-1.82","5f513779f44f1533e7274c47","619531dcf66c91622fa1b861","6195961a539cae53f5c13b51","2479.2999999970198","","d","false","[[16,202],[119,539],[472,545],[586,212],[305,0]]","false","5","main_T2_Trial","s","img/Fire_Down_Target.gif","[""img/Fire_Up_Distractor.gif"",""img/Fire_Up_Distractor.gif"",""img/Fire_Up_Distractor.gif"",""img/Fire_Up_Distractor.gif"",""img/Fire_Up_Distractor.gif"",""img/Fire_Up_Distractor.gif"",""img/Fire_Up_Distractor.gif"",""img/Fire_Up_Distractor.gif"",""img/Fire_Up_Distractor.gif"",""img/Fire_Up_Distractor.gif"",""img/Fire_Up_Distractor.gif"",""img/Fire_Up_Distractor.gif""]","5","targetDown_distractorsUp"
"","","","","","html-keyboard-response","180","793719","0.0-14.0-0.0-0.83","5f513779f44f1533e7274c47","619531dcf66c91622fa1b861","6195961a539cae53f5c13b51","null","","null","","","","","main_T1_ITI","","","","",""
"","","","","","visual-search-circle","181","798077","0.0-14.0-0.0-1.83","5f513779f44f1533e7274c47","619531dcf66c91622fa1b861","6195961a539cae53f5c13b51","3341.5","","d","true","[[268,1],[1,331],[331,598],[598,268]]","true","4","main_T2_Trial","d","img/Fire_Down_Target.gif","[""img/Fire_Up_Distractor.gif"",""img/Fire_Up_Distractor.gif"",""img/Fire_Up_Distractor.gif"",""img/Fire_Up_Distractor.gif"",""img/Fire_Up_Distractor.gif"",""img/Fire_Up_Distractor.gif"",""img/Fire_Up_Distractor.gif"",""img/Fire_Up_Distractor.gif"",""img/Fire_Up_Distractor.gif"",""img/Fire_Up_Distractor.gif"",""img/Fire_Up_Distractor.gif"",""img/Fire_Up_Distractor.gif""]","4","targetDown_distractorsUp"
"","","","","","html-keyboard-response","182","798154","0.0-14.0-0.0-0.84","5f513779f44f1533e7274c47","619531dcf66c91622fa1b861","6195961a539cae53f5c13b51","null","","null","","","","","main_T1_ITI","","","","",""
"","","","","","visual-search-circle","183","801834","0.0-14.0-0.0-1.84","5f513779f44f1533e7274c47","619531dcf66c91622fa1b861","6195961a539cae53f5c13b51","2656","","s","true","[[440,35],[180,24],[10,221],[58,477],[288,599],[526,496],[594,244]]","false","7","main_T2_Trial","s","img/Fire_Up_Target.gif","[""img/Fire_Down_Distractor.gif"",""img/Fire_Down_Distractor.gif"",""img/Fire_Down_Distractor.gif"",""img/Fire_Down_Distractor.gif"",""img/Fire_Down_Distractor.gif"",""img/Fire_Down_Distractor.gif"",""img/Fire_Down_Distractor.gif"",""img/Fire_Down_Distractor.gif"",""img/Fire_Down_Distractor.gif"",""img/Fire_Down_Distractor.gif"",""img/Fire_Down_Distractor.gif"",""img/Fire_Down_Distractor.gif""]","7","targetUp_distractorsDown"
"","","","","","html-keyboard-response","184","801864","0.0-14.0-0.0-0.85","5f513779f44f1533e7274c47","619531dcf66c91622fa1b861","6195961a539cae53f5c13b51","null","","null","","","","","main_T1_ITI","","","","",""
"","","","","","visual-search-circle","185","806289","0.0-14.0-0.0-1.85","5f513779f44f1533e7274c47","619531dcf66c91622fa1b861","6195961a539cae53f5c13b51","3405.5","","d","false","[[476,542],[585,207],[300,0],[14,207],[123,542]]","false","5","main_T2_Trial","s","img/Fire_Up_Target.gif","[""img/Fire_Down_Distractor.gif"",""img/Fire_Down_Distractor.gif"",""img/Fire_Down_Distractor.gif"",""img/Fire_Down_Distractor.gif"",""img/Fire_Down_Distractor.gif"",""img/Fire_Down_Distractor.gif"",""img/Fire_Down_Distractor.gif"",""img/Fire_Down_Distractor.gif"",""img/Fire_Down_Distractor.gif"",""img/Fire_Down_Distractor.gif"",""img/Fire_Down_Distractor.gif"",""img/Fire_Down_Distractor.gif""]","5","targetUp_distractorsDown"
"","","","","","html-keyboard-response","186","806292","0.0-14.0-0.0-0.86","5f513779f44f1533e7274c47","619531dcf66c91622fa1b861","6195961a539cae53f5c13b51","null","","null","","","","","main_T1_ITI","","","","",""
"","","","","","visual-search-circle","187","811053","0.0-14.0-0.0-1.86","5f513779f44f1533e7274c47","619531dcf66c91622fa1b861","6195961a539cae53f5c13b51","3737","","d","true","[[227,8],[0,279],[187,578],[529,492],[554,141]]","true","5","main_T2_Trial","d","img/Fire_Up_Target.gif","[""img/Fire_Down_Distractor.gif"",""img/Fire_Down_Distractor.gif"",""img/Fire_Down_Distractor.gif"",""img/Fire_Down_Distractor.gif"",""img/Fire_Down_Distractor.gif"",""img/Fire_Down_Distractor.gif"",""img/Fire_Down_Distractor.gif"",""img/Fire_Down_Distractor.gif"",""img/Fire_Down_Distractor.gif"",""img/Fire_Down_Distractor.gif"",""img/Fire_Down_Distractor.gif"",""img/Fire_Down_Distractor.gif""]","5","targetUp_distractorsDown"
"","","","","","html-keyboard-response","188","811080","0.0-14.0-0.0-0.87","5f513779f44f1533e7274c47","619531dcf66c91622fa1b861","6195961a539cae53f5c13b51","null","","null","","","","","main_T1_ITI","","","","",""
"","","","","","visual-search-circle","189","816064","0.0-14.0-0.0-1.87","5f513779f44f1533e7274c47","619531dcf66c91622fa1b861","6195961a539cae53f5c13b51","3957.10000000149","","d","true","[[454,42],[154,37],[0,294],[145,557],[445,562],[599,305]]","true","6","main_T2_Trial","d","img/Fire_Down_Target.gif","[""img/Fire_Up_Distractor.gif"",""img/Fire_Up_Distractor.gif"",""img/Fire_Up_Distractor.gif"",""img/Fire_Up_Distractor.gif"",""img/Fire_Up_Distractor.gif"",""img/Fire_Up_Distractor.gif"",""img/Fire_Up_Distractor.gif"",""img/Fire_Up_Distractor.gif"",""img/Fire_Up_Distractor.gif"",""img/Fire_Up_Distractor.gif"",""img/Fire_Up_Distractor.gif"",""img/Fire_Up_Distractor.gif""]","6","targetDown_distractorsUp"
"","","","","","html-keyboard-response","190","816096","0.0-14.0-0.0-0.88","5f513779f44f1533e7274c47","619531dcf66c91622fa1b861","6195961a539cae53f5c13b51","null","","null","","","","","main_T1_ITI","","","","",""
"","","","","","visual-search-circle","191","819892","0.0-14.0-0.0-1.88","5f513779f44f1533e7274c47","619531dcf66c91622fa1b861","6195961a539cae53f5c13b51","2769.5","","d","true","[[422,574],[598,331],[476,57],[177,25],[1,268],[123,542]]","true","6","main_T2_Trial","d","img/Fire_Down_Target.gif","[""img/Fire_Up_Distractor.gif"",""img/Fire_Up_Distractor.gif"",""img/Fire_Up_Distractor.gif"",""img/Fire_Up_Distractor.gif"",""img/Fire_Up_Distractor.gif"",""img/Fire_Up_Distractor.gif"",""img/Fire_Up_Distractor.gif"",""img/Fire_Up_Distractor.gif"",""img/Fire_Up_Distractor.gif"",""img/Fire_Up_Distractor.gif"",""img/Fire_Up_Distractor.gif"",""img/Fire_Up_Distractor.gif""]","6","targetDown_distractorsUp"
"","","","","","html-keyboard-response","192","819916","0.0-14.0-0.0-0.89","5f513779f44f1533e7274c47","619531dcf66c91622fa1b861","6195961a539cae53f5c13b51","null","","null","","","","","main_T1_ITI","","","","",""
"","","","","","visual-search-circle","193","828021","0.0-14.0-0.0-1.89","5f513779f44f1533e7274c47","619531dcf66c91622fa1b861","6195961a539cae53f5c13b51","7081.10000000149","","d","false","[[341,2],[30,168],[91,515],[440,564],[595,247]]","false","5","main_T2_Trial","s","img/Fire_Down_Target.gif","[""img/Fire_Up_Distractor.gif"",""img/Fire_Up_Distractor.gif"",""img/Fire_Up_Distractor.gif"",""img/Fire_Up_Distractor.gif"",""img/Fire_Up_Distractor.gif"",""img/Fire_Up_Distractor.gif"",""img/Fire_Up_Distractor.gif"",""img/Fire_Up_Distractor.gif"",""img/Fire_Up_Distractor.gif"",""img/Fire_Up_Distractor.gif"",""img/Fire_Up_Distractor.gif"",""img/Fire_Up_Distractor.gif""]","5","targetDown_distractorsUp"
"","","","","","html-keyboard-response","194","828036","0.0-14.0-0.0-0.90","5f513779f44f1533e7274c47","619531dcf66c91622fa1b861","6195961a539cae53f5c13b51","null","","null","","","","","main_T1_ITI","","","","",""
"","","","","","visual-search-circle","195","833177","0.0-14.0-0.0-1.90","5f513779f44f1533e7274c47","619531dcf66c91622fa1b861","6195961a539cae53f5c13b51","4118.10000000149","","d","true","[[299,600],[585,392],[476,57],[123,57],[14,392]]","true","5","main_T2_Trial","d","img/Fire_Up_Target.gif","[""img/Fire_Down_Distractor.gif"",""img/Fire_Down_Distractor.gif"",""img/Fire_Down_Distractor.gif"",""img/Fire_Down_Distractor.gif"",""img/Fire_Down_Distractor.gif"",""img/Fire_Down_Distractor.gif"",""img/Fire_Down_Distractor.gif"",""img/Fire_Down_Distractor.gif"",""img/Fire_Down_Distractor.gif"",""img/Fire_Down_Distractor.gif"",""img/Fire_Down_Distractor.gif"",""img/Fire_Down_Distractor.gif""]","5","targetUp_distractorsDown"
"","","","","","html-keyboard-response","196","833191","0.0-14.0-0.0-0.91","5f513779f44f1533e7274c47","619531dcf66c91622fa1b861","6195961a539cae53f5c13b51","null","","null","","","","","main_T1_ITI","","","","",""
"","","","","","visual-search-circle","197","840625","0.0-14.0-0.0-1.91","5f513779f44f1533e7274c47","619531dcf66c91622fa1b861","6195961a539cae53f5c13b51","6404.20000000298","","d","true","[[25,177],[19,407],[177,574],[407,580],[574,422],[580,192],[422,25],[192,19]]","true","8","main_T2_Trial","d","img/Fire_Down_Target.gif","[""img/Fire_Up_Distractor.gif"",""img/Fire_Up_Distractor.gif"",""img/Fire_Up_Distractor.gif"",""img/Fire_Up_Distractor.gif"",""img/Fire_Up_Distractor.gif"",""img/Fire_Up_Distractor.gif"",""img/Fire_Up_Distractor.gif"",""img/Fire_Up_Distractor.gif"",""img/Fire_Up_Distractor.gif"",""img/Fire_Up_Distractor.gif"",""img/Fire_Up_Distractor.gif"",""img/Fire_Up_Distractor.gif""]","8","targetDown_distractorsUp"
"","","","","","html-keyboard-response","198","840677","0.0-14.0-0.0-0.92","5f513779f44f1533e7274c47","619531dcf66c91622fa1b861","6195961a539cae53f5c13b51","null","","null","","","","","main_T1_ITI","","","","",""
"","","","","","visual-search-circle","199","844302","0.0-14.0-0.0-1.92","5f513779f44f1533e7274c47","619531dcf66c91622fa1b861","6195961a539cae53f5c13b51","2583.7999999970198","","s","true","[[599,320],[526,103],[320,0],[103,73],[0,279],[73,496],[279,599],[496,526]]","false","8","main_T2_Trial","s","img/Fire_Up_Target.gif","[""img/Fire_Down_Distractor.gif"",""img/Fire_Down_Distractor.gif"",""img/Fire_Down_Distractor.gif"",""img/Fire_Down_Distractor.gif"",""img/Fire_Down_Distractor.gif"",""img/Fire_Down_Distractor.gif"",""img/Fire_Down_Distractor.gif"",""img/Fire_Down_Distractor.gif"",""img/Fire_Down_Distractor.gif"",""img/Fire_Down_Distractor.gif"",""img/Fire_Down_Distractor.gif"",""img/Fire_Down_Distractor.gif""]","8","targetUp_distractorsDown"
"","","","","","html-keyboard-response","200","844319","0.0-14.0-0.0-0.93","5f513779f44f1533e7274c47","619531dcf66c91622fa1b861","6195961a539cae53f5c13b51","null","","null","","","","","main_T1_ITI","","","","",""
"","","","","","visual-search-circle","201","847586","0.0-14.0-0.0-1.93","5f513779f44f1533e7274c47","619531dcf66c91622fa1b861","6195961a539cae53f5c13b51","2242.89999999851","","s","true","[[217,11],[22,184],[37,444],[249,595],[499,523],[599,283],[473,55]]","false","7","main_T2_Trial","s","img/Fire_Up_Target.gif","[""img/Fire_Down_Distractor.gif"",""img/Fire_Down_Distractor.gif"",""img/Fire_Down_Distractor.gif"",""img/Fire_Down_Distractor.gif"",""img/Fire_Down_Distractor.gif"",""img/Fire_Down_Distractor.gif"",""img/Fire_Down_Distractor.gif"",""img/Fire_Down_Distractor.gif"",""img/Fire_Down_Distractor.gif"",""img/Fire_Down_Distractor.gif"",""img/Fire_Down_Distractor.gif"",""img/Fire_Down_Distractor.gif""]","7","targetUp_distractorsDown"
"","","","","","html-keyboard-response","202","847592","0.0-14.0-0.0-0.94","5f513779f44f1533e7274c47","619531dcf66c91622fa1b861","6195961a539cae53f5c13b51","null","","null","","","","","main_T1_ITI","","","","",""
"","","","","","visual-search-circle","203","856424","0.0-14.0-0.0-1.94","5f513779f44f1533e7274c47","619531dcf66c91622fa1b861","6195961a539cae53f5c13b51","7810.5","","d","false","[[18,197],[197,581],[581,402],[402,18]]","false","4","main_T2_Trial","s","img/Fire_Up_Target.gif","[""img/Fire_Down_Distractor.gif"",""img/Fire_Down_Distractor.gif"",""img/Fire_Down_Distractor.gif"",""img/Fire_Down_Distractor.gif"",""img/Fire_Down_Distractor.gif"",""img/Fire_Down_Distractor.gif"",""img/Fire_Down_Distractor.gif"",""img/Fire_Down_Distractor.gif"",""img/Fire_Down_Distractor.gif"",""img/Fire_Down_Distractor.gif"",""img/Fire_Down_Distractor.gif"",""img/Fire_Down_Distractor.gif""]","4","targetUp_distractorsDown"
"","","","","","html-keyboard-response","204","856457","0.0-14.0-0.0-0.95","5f513779f44f1533e7274c47","619531dcf66c91622fa1b861","6195961a539cae53f5c13b51","null","","null","","","","","main_T1_ITI","","","","",""
"","","","","","visual-search-circle","205","860231","0.0-14.0-0.0-1.95","5f513779f44f1533e7274c47","619531dcf66c91622fa1b861","6195961a539cae53f5c13b51","2746.10000000149","","d","true","[[300,0],[65,112],[7,366],[169,570],[430,570],[592,366],[534,112]]","true","7","main_T2_Trial","d","img/Fire_Down_Target.gif","[""img/Fire_Up_Distractor.gif"",""img/Fire_Up_Distractor.gif"",""img/Fire_Up_Distractor.gif"",""img/Fire_Up_Distractor.gif"",""img/Fire_Up_Distractor.gif"",""img/Fire_Up_Distractor.gif"",""img/Fire_Up_Distractor.gif"",""img/Fire_Up_Distractor.gif"",""img/Fire_Up_Distractor.gif"",""img/Fire_Up_Distractor.gif"",""img/Fire_Up_Distractor.gif"",""img/Fire_Up_Distractor.gif""]","7","targetDown_distractorsUp"
"","","","","","html-keyboard-response","206","860282","0.0-14.0-0.0-0.96","5f513779f44f1533e7274c47","619531dcf66c91622fa1b861","6195961a539cae53f5c13b51","null","","null","","","","","main_T1_ITI","","","","",""
"","","","","","visual-search-circle","207","863448","0.0-14.0-0.0-1.96","5f513779f44f1533e7274c47","619531dcf66c91622fa1b861","6195961a539cae53f5c13b51","2138.39999999851","","s","true","[[232,7],[45,141],[7,367],[141,554],[367,592],[554,458],[592,232],[458,45]]","false","8","main_T2_Trial","s","img/Fire_Up_Target.gif","[""img/Fire_Down_Distractor.gif"",""img/Fire_Down_Distractor.gif"",""img/Fire_Down_Distractor.gif"",""img/Fire_Down_Distractor.gif"",""img/Fire_Down_Distractor.gif"",""img/Fire_Down_Distractor.gif"",""img/Fire_Down_Distractor.gif"",""img/Fire_Down_Distractor.gif"",""img/Fire_Down_Distractor.gif"",""img/Fire_Down_Distractor.gif"",""img/Fire_Down_Distractor.gif"",""img/Fire_Down_Distractor.gif""]","8","targetUp_distractorsDown"
"","","","","","html-keyboard-response","208","863455","0.0-14.0-0.0-0.97","5f513779f44f1533e7274c47","619531dcf66c91622fa1b861","6195961a539cae53f5c13b51","null","","null","","","","","main_T1_ITI","","","","",""
"","","","","","visual-search-circle","209","866629","0.0-14.0-0.0-1.97","5f513779f44f1533e7274c47","619531dcf66c91622fa1b861","6195961a539cae53f5c13b51","2154.60000000149","","d","true","[[177,25],[25,422],[422,574],[574,177]]","true","4","main_T2_Trial","d","img/Fire_Down_Target.gif","[""img/Fire_Up_Distractor.gif"",""img/Fire_Up_Distractor.gif"",""img/Fire_Up_Distractor.gif"",""img/Fire_Up_Distractor.gif"",""img/Fire_Up_Distractor.gif"",""img/Fire_Up_Distractor.gif"",""img/Fire_Up_Distractor.gif"",""img/Fire_Up_Distractor.gif"",""img/Fire_Up_Distractor.gif"",""img/Fire_Up_Distractor.gif"",""img/Fire_Up_Distractor.gif"",""img/Fire_Up_Distractor.gif""]","4","targetDown_distractorsUp"
"","","","","","html-keyboard-response","210","866678","0.0-14.0-0.0-0.98","5f513779f44f1533e7274c47","619531dcf66c91622fa1b861","6195961a539cae53f5c13b51","null","","null","","","","","main_T1_ITI","","","","",""
"","","","","","visual-search-circle","211","874249","0.0-14.0-0.0-1.98","5f513779f44f1533e7274c47","619531dcf66c91622fa1b861","6195961a539cae53f5c13b51","6546.39999999851","","d","false","[[54,472],[387,586],[599,305],[397,16],[60,119]]","false","5","main_T2_Trial","s","img/Fire_Down_Target.gif","[""img/Fire_Up_Distractor.gif"",""img/Fire_Up_Distractor.gif"",""img/Fire_Up_Distractor.gif"",""img/Fire_Up_Distractor.gif"",""img/Fire_Up_Distractor.gif"",""img/Fire_Up_Distractor.gif"",""img/Fire_Up_Distractor.gif"",""img/Fire_Up_Distractor.gif"",""img/Fire_Up_Distractor.gif"",""img/Fire_Up_Distractor.gif"",""img/Fire_Up_Distractor.gif"",""img/Fire_Up_Distractor.gif""]","5","targetDown_distractorsUp"
"","","","","","html-keyboard-response","212","904206","0.0-14.0-0.0-0.99","5f513779f44f1533e7274c47","619531dcf66c91622fa1b861","6195961a539cae53f5c13b51","29953.30000000447","Wow! You've completed 100 out of 160 trials! </p> <p>  </p><p> Take a quick break, then press any key when you're ready to continue."," ","","","","","main_T1_ITI","","","","",""
"","","","","","visual-search-circle","213","910121","0.0-14.0-0.0-1.99","5f513779f44f1533e7274c47","619531dcf66c91622fa1b861","6195961a539cae53f5c13b51","4888.10000000149","","s","true","[[422,574],[598,331],[476,57],[177,25],[1,268],[123,542]]","false","6","main_T2_Trial","s","img/Fire_Up_Target.gif","[""img/Fire_Down_Distractor.gif"",""img/Fire_Down_Distractor.gif"",""img/Fire_Down_Distractor.gif"",""img/Fire_Down_Distractor.gif"",""img/Fire_Down_Distractor.gif"",""img/Fire_Down_Distractor.gif"",""img/Fire_Down_Distractor.gif"",""img/Fire_Down_Distractor.gif"",""img/Fire_Down_Distractor.gif"",""img/Fire_Down_Distractor.gif"",""img/Fire_Down_Distractor.gif"",""img/Fire_Down_Distractor.gif""]","6","targetUp_distractorsDown"
"","","","","","html-keyboard-response","214","910124","0.0-14.0-0.0-0.100","5f513779f44f1533e7274c47","619531dcf66c91622fa1b861","6195961a539cae53f5c13b51","null","","null","","","","","main_T1_ITI","","","","",""
"","","","","","visual-search-circle","215","917726","0.0-14.0-0.0-1.100","5f513779f44f1533e7274c47","619531dcf66c91622fa1b861","6195961a539cae53f5c13b51","6575.89999999851","","s","true","[[542,123],[313,0],[74,102],[4,353],[157,564],[417,575],[589,379]]","false","7","main_T2_Trial","s","img/Fire_Up_Target.gif","[""img/Fire_Down_Distractor.gif"",""img/Fire_Down_Distractor.gif"",""img/Fire_Down_Distractor.gif"",""img/Fire_Down_Distractor.gif"",""img/Fire_Down_Distractor.gif"",""img/Fire_Down_Distractor.gif"",""img/Fire_Down_Distractor.gif"",""img/Fire_Down_Distractor.gif"",""img/Fire_Down_Distractor.gif"",""img/Fire_Down_Distractor.gif"",""img/Fire_Down_Distractor.gif"",""img/Fire_Down_Distractor.gif""]","7","targetUp_distractorsDown"
"","","","","","html-keyboard-response","216","917735","0.0-14.0-0.0-0.101","5f513779f44f1533e7274c47","619531dcf66c91622fa1b861","6195961a539cae53f5c13b51","null","","null","","","","","main_T1_ITI","","","","",""
