"success","timeout","failed_images","failed_audio","failed_video","trial_type","trial_index","time_elapsed","internal_node_id","subject_id","study_id","session_id","rt","stimulus","response","correct","locations","target_present","set_size","task","correct_response","target","foilCM","setSizeCM","searchCondition"
"true","false","[]","[]","[]","preload","0","1112568","0.0-0.0","5f52b69cd864aa5b51e1fc63","619531dcf66c91622fa1b861","6195a214b03721644d34ff2f","","","","","","","","","","","","",""
"true","","","","","fullscreen","1","1119495","0.0-1.0","5f52b69cd864aa5b51e1fc63","619531dcf66c91622fa1b861","6195a214b03721644d34ff2f","","","","","","","","","","","","",""
"","","","","","html-keyboard-response","2","1130245","0.0-2.0","5f52b69cd864aa5b51e1fc63","619531dcf66c91622fa1b861","6195a214b03721644d34ff2f","10748","What a beautiful Wednesday to do some awesome science! </p> <p>  </p><p> </p>
    By completing this survey or questionnaire, you are consenting to be in this research study. </p>
    Your participation is voluntary and you can stop at any time.
    <p> [Press any key to continue.] </p>
    
    "," ","","","","","","","","","",""
"","","","","","video-keyboard-response","3","1184036","0.0-3.0","5f52b69cd864aa5b51e1fc63","619531dcf66c91622fa1b861","6195a214b03721644d34ff2f","53766","[""video/TaskInstructions.mp4""]","d","","","","","","","","","",""
"","","","","","html-keyboard-response","4","1188275","0.0-4.0","5f52b69cd864aa5b51e1fc63","619531dcf66c91622fa1b861","6195a214b03721644d34ff2f","4239","
    <p>First, we're going to do a few practice trials to make sure you understand the task. You will recieve feedback on each trial. </p>
    <p>[Press any key to begin the familiarization phase.]</p>
    "," ","","","","","","","","","",""
"","","","","","visual-search-circle","5","1201699","0.0-5.0-0.0","5f52b69cd864aa5b51e1fc63","619531dcf66c91622fa1b861","6195a214b03721644d34ff2f","12353","","d","true","[[0,279],[279,599],[599,320],[320,0]]","true","4","training","d","","","",""
"","","","","","html-keyboard-response","6","1205328","0.0-6.0","5f52b69cd864aa5b51e1fc63","619531dcf66c91622fa1b861","6195a214b03721644d34ff2f","3622"," <div style='float: center; '><img src='img/feedbackRight.png'></img> </div> "," ","","","","","","","","","",""
"","","","","","visual-search-circle","7","1217278","0.0-7.0-0.0","5f52b69cd864aa5b51e1fc63","619531dcf66c91622fa1b861","6195a214b03721644d34ff2f","10936","","d","false","[[23,182],[182,576],[576,417],[417,23]]","false","4","training","s","","","",""
"","","","","","html-keyboard-response","8","1225306","0.0-8.0","5f52b69cd864aa5b51e1fc63","619531dcf66c91622fa1b861","6195a214b03721644d34ff2f","8027"," <div style='float: center;'><img src='img/feedbackWrong.png'></img> </div> "," ","","","","","","","","","",""
"","","","","","visual-search-circle","9","1232923","0.0-9.0-0.0","5f52b69cd864aa5b51e1fc63","619531dcf66c91622fa1b861","6195a214b03721644d34ff2f","6594","","s","true","[[504,519],[592,232],[387,13],[95,80],[7,367],[212,586]]","false","6","training","s","","","",""
"","","","","","html-keyboard-response","10","1235038","0.0-10.0","5f52b69cd864aa5b51e1fc63","619531dcf66c91622fa1b861","6195a214b03721644d34ff2f","2113"," <div style='float: center; '><img src='img/feedbackRight.png'></img> </div> ","s","","","","","","","","","",""
"","","","","","visual-search-circle","11","1237234","0.0-11.0-0.0","5f52b69cd864aa5b51e1fc63","619531dcf66c91622fa1b861","6195a214b03721644d34ff2f","1183","","d","true","[[6,237],[48,463],[237,593],[463,551],[593,362],[551,136],[362,6],[136,48]]","true","8","training","d","","","",""
"","","","","","html-keyboard-response","12","1239718","0.0-12.0","5f52b69cd864aa5b51e1fc63","619531dcf66c91622fa1b861","6195a214b03721644d34ff2f","2483"," <div style='float: center; '><img src='img/feedbackRight.png'></img> </div> ","d","","","","","","","","","",""
"","","","","","video-keyboard-response","13","1245935","0.0-13.0","5f52b69cd864aa5b51e1fc63","619531dcf66c91622fa1b861","6195a214b03721644d34ff2f","6213","[""video/endTraining.mp4""]"," ","","","","","","","","","",""
"","","","","","html-keyboard-response","14","1245939","0.0-14.0-0.0-0.0","5f52b69cd864aa5b51e1fc63","619531dcf66c91622fa1b861","6195a214b03721644d34ff2f","null","","null","","","","","main_T1_ITI","","","","",""
"","","","","","visual-search-circle","15","1249658","0.0-14.0-0.0-1.0","5f52b69cd864aa5b51e1fc63","619531dcf66c91622fa1b861","6195a214b03721644d34ff2f","2698","","s","true","[[16,202],[30,431],[202,583],[431,569],[583,397],[569,168],[397,16],[168,30]]","false","8","main_T2_Trial","s","img/Fire_Up_Target.gif","[""img/Fire_Down_Distractor.gif"",""img/Fire_Down_Distractor.gif"",""img/Fire_Down_Distractor.gif"",""img/Fire_Down_Distractor.gif"",""img/Fire_Down_Distractor.gif"",""img/Fire_Down_Distractor.gif"",""img/Fire_Down_Distractor.gif"",""img/Fire_Down_Distractor.gif"",""img/Fire_Down_Distractor.gif"",""img/Fire_Down_Distractor.gif"",""img/Fire_Down_Distractor.gif"",""img/Fire_Down_Distractor.gif""]","8","targetUp_distractorsDown"
"","","","","","html-keyboard-response","16","1249658","0.0-14.0-0.0-0.1","5f52b69cd864aa5b51e1fc63","619531dcf66c91622fa1b861","6195a214b03721644d34ff2f","null","","null","","","","","main_T1_ITI","","","","",""
"","","","","","visual-search-circle","17","1251623","0.0-14.0-0.0-1.1","5f52b69cd864aa5b51e1fc63","619531dcf66c91622fa1b861","6195a214b03721644d34ff2f","944","","d","true","[[273,1],[28,173],[54,472],[326,598],[571,426],[545,127]]","true","6","main_T2_Trial","d","img/Fire_Down_Target.gif","[""img/Fire_Up_Distractor.gif"",""img/Fire_Up_Distractor.gif"",""img/Fire_Up_Distractor.gif"",""img/Fire_Up_Distractor.gif"",""img/Fire_Up_Distractor.gif"",""img/Fire_Up_Distractor.gif"",""img/Fire_Up_Distractor.gif"",""img/Fire_Up_Distractor.gif"",""img/Fire_Up_Distractor.gif"",""img/Fire_Up_Distractor.gif"",""img/Fire_Up_Distractor.gif"",""img/Fire_Up_Distractor.gif""]","6","targetDown_distractorsUp"
"","","","","","html-keyboard-response","18","1251623","0.0-14.0-0.0-0.2","5f52b69cd864aa5b51e1fc63","619531dcf66c91622fa1b861","6195a214b03721644d34ff2f","null","","null","","","","","main_T1_ITI","","","","",""
"","","","","","visual-search-circle","19","1254318","0.0-14.0-0.0-1.2","5f52b69cd864aa5b51e1fc63","619531dcf66c91622fa1b861","6195a214b03721644d34ff2f","1678","","s","true","[[581,197],[426,28],[197,18],[28,173],[18,402],[173,571],[402,581],[571,426]]","false","8","main_T2_Trial","s","img/Fire_Down_Target.gif","[""img/Fire_Up_Distractor.gif"",""img/Fire_Up_Distractor.gif"",""img/Fire_Up_Distractor.gif"",""img/Fire_Up_Distractor.gif"",""img/Fire_Up_Distractor.gif"",""img/Fire_Up_Distractor.gif"",""img/Fire_Up_Distractor.gif"",""img/Fire_Up_Distractor.gif"",""img/Fire_Up_Distractor.gif"",""img/Fire_Up_Distractor.gif"",""img/Fire_Up_Distractor.gif"",""img/Fire_Up_Distractor.gif""]","8","targetDown_distractorsUp"
"","","","","","html-keyboard-response","20","1254319","0.0-14.0-0.0-0.3","5f52b69cd864aa5b51e1fc63","619531dcf66c91622fa1b861","6195a214b03721644d34ff2f","null","","null","","","","","main_T1_ITI","","","","",""
"","","","","","visual-search-circle","21","1257600","0.0-14.0-0.0-1.3","5f52b69cd864aa5b51e1fc63","619531dcf66c91622fa1b861","6195a214b03721644d34ff2f","2261","","s","true","[[305,0],[42,145],[37,445],[294,599],[557,454],[562,154]]","false","6","main_T2_Trial","s","img/Fire_Down_Target.gif","[""img/Fire_Up_Distractor.gif"",""img/Fire_Up_Distractor.gif"",""img/Fire_Up_Distractor.gif"",""img/Fire_Up_Distractor.gif"",""img/Fire_Up_Distractor.gif"",""img/Fire_Up_Distractor.gif"",""img/Fire_Up_Distractor.gif"",""img/Fire_Up_Distractor.gif"",""img/Fire_Up_Distractor.gif"",""img/Fire_Up_Distractor.gif"",""img/Fire_Up_Distractor.gif"",""img/Fire_Up_Distractor.gif""]","6","targetDown_distractorsUp"
"","","","","","html-keyboard-response","22","1257600","0.0-14.0-0.0-0.4","5f52b69cd864aa5b51e1fc63","619531dcf66c91622fa1b861","6195a214b03721644d34ff2f","null","","null","","","","","main_T1_ITI","","","","",""
"","","","","","visual-search-circle","23","1260694","0.0-14.0-0.0-1.4","5f52b69cd864aa5b51e1fc63","619531dcf66c91622fa1b861","6195a214b03721644d34ff2f","2086","","s","true","[[515,91],[305,0],[91,84],[0,294],[84,508],[294,599],[508,515],[599,305]]","false","8","main_T2_Trial","s","img/Fire_Up_Target.gif","[""img/Fire_Down_Distractor.gif"",""img/Fire_Down_Distractor.gif"",""img/Fire_Down_Distractor.gif"",""img/Fire_Down_Distractor.gif"",""img/Fire_Down_Distractor.gif"",""img/Fire_Down_Distractor.gif"",""img/Fire_Down_Distractor.gif"",""img/Fire_Down_Distractor.gif"",""img/Fire_Down_Distractor.gif"",""img/Fire_Down_Distractor.gif"",""img/Fire_Down_Distractor.gif"",""img/Fire_Down_Distractor.gif""]","8","targetUp_distractorsDown"
"","","","","","html-keyboard-response","24","1260695","0.0-14.0-0.0-0.5","5f52b69cd864aa5b51e1fc63","619531dcf66c91622fa1b861","6195a214b03721644d34ff2f","null","","null","","","","","main_T1_ITI","","","","",""
"","","","","","visual-search-circle","25","1262547","0.0-14.0-0.0-1.5","5f52b69cd864aa5b51e1fc63","619531dcf66c91622fa1b861","6195a214b03721644d34ff2f","839","","d","true","[[263,2],[5,242],[154,562],[504,519],[571,173]]","true","5","main_T2_Trial","d","img/Fire_Down_Target.gif","[""img/Fire_Up_Distractor.gif"",""img/Fire_Up_Distractor.gif"",""img/Fire_Up_Distractor.gif"",""img/Fire_Up_Distractor.gif"",""img/Fire_Up_Distractor.gif"",""img/Fire_Up_Distractor.gif"",""img/Fire_Up_Distractor.gif"",""img/Fire_Up_Distractor.gif"",""img/Fire_Up_Distractor.gif"",""img/Fire_Up_Distractor.gif"",""img/Fire_Up_Distractor.gif"",""img/Fire_Up_Distractor.gif""]","5","targetDown_distractorsUp"
"","","","","","html-keyboard-response","26","1262549","0.0-14.0-0.0-0.6","5f52b69cd864aa5b51e1fc63","619531dcf66c91622fa1b861","6195a214b03721644d34ff2f","null","","null","","","","","main_T1_ITI","","","","",""
"","","","","","visual-search-circle","27","1265056","0.0-14.0-0.0-1.6","5f52b69cd864aa5b51e1fc63","619531dcf66c91622fa1b861","6195a214b03721644d34ff2f","1488","","s","true","[[492,70],[70,107],[107,529],[529,492]]","false","4","main_T2_Trial","s","img/Fire_Up_Target.gif","[""img/Fire_Down_Distractor.gif"",""img/Fire_Down_Distractor.gif"",""img/Fire_Down_Distractor.gif"",""img/Fire_Down_Distractor.gif"",""img/Fire_Down_Distractor.gif"",""img/Fire_Down_Distractor.gif"",""img/Fire_Down_Distractor.gif"",""img/Fire_Down_Distractor.gif"",""img/Fire_Down_Distractor.gif"",""img/Fire_Down_Distractor.gif"",""img/Fire_Down_Distractor.gif"",""img/Fire_Down_Distractor.gif""]","4","targetUp_distractorsDown"
"","","","","","html-keyboard-response","28","1265056","0.0-14.0-0.0-0.7","5f52b69cd864aa5b51e1fc63","619531dcf66c91622fa1b861","6195a214b03721644d34ff2f","null","","null","","","","","main_T1_ITI","","","","",""
"","","","","","visual-search-circle","29","1269023","0.0-14.0-0.0-1.7","5f52b69cd864aa5b51e1fc63","619531dcf66c91622fa1b861","6195a214b03721644d34ff2f","2948","","s","true","[[154,37],[5,357],[263,597],[571,426],[504,80]]","false","5","main_T2_Trial","s","img/Fire_Down_Target.gif","[""img/Fire_Up_Distractor.gif"",""img/Fire_Up_Distractor.gif"",""img/Fire_Up_Distractor.gif"",""img/Fire_Up_Distractor.gif"",""img/Fire_Up_Distractor.gif"",""img/Fire_Up_Distractor.gif"",""img/Fire_Up_Distractor.gif"",""img/Fire_Up_Distractor.gif"",""img/Fire_Up_Distractor.gif"",""img/Fire_Up_Distractor.gif"",""img/Fire_Up_Distractor.gif"",""img/Fire_Up_Distractor.gif""]","5","targetDown_distractorsUp"
"","","","","","html-keyboard-response","30","1269023","0.0-14.0-0.0-0.8","5f52b69cd864aa5b51e1fc63","619531dcf66c91622fa1b861","6195a214b03721644d34ff2f","null","","null","","","","","main_T1_ITI","","","","",""
"","","","","","visual-search-circle","31","1271578","0.0-14.0-0.0-1.8","5f52b69cd864aa5b51e1fc63","619531dcf66c91622fa1b861","6195a214b03721644d34ff2f","1550","","d","true","[[154,37],[0,294],[145,557],[445,562],[599,305],[454,42]]","true","6","main_T2_Trial","d","img/Fire_Down_Target.gif","[""img/Fire_Up_Distractor.gif"",""img/Fire_Up_Distractor.gif"",""img/Fire_Up_Distractor.gif"",""img/Fire_Up_Distractor.gif"",""img/Fire_Up_Distractor.gif"",""img/Fire_Up_Distractor.gif"",""img/Fire_Up_Distractor.gif"",""img/Fire_Up_Distractor.gif"",""img/Fire_Up_Distractor.gif"",""img/Fire_Up_Distractor.gif"",""img/Fire_Up_Distractor.gif"",""img/Fire_Up_Distractor.gif""]","6","targetDown_distractorsUp"
"","","","","","html-keyboard-response","32","1271579","0.0-14.0-0.0-0.9","5f52b69cd864aa5b51e1fc63","619531dcf66c91622fa1b861","6195a214b03721644d34ff2f","null","","null","","","","","main_T1_ITI","","","","",""
"","","","","","visual-search-circle","33","1275106","0.0-14.0-0.0-1.9","5f52b69cd864aa5b51e1fc63","619531dcf66c91622fa1b861","6195a214b03721644d34ff2f","2508","","s","true","[[431,569],[597,258],[352,4],[35,159],[84,508]]","false","5","main_T2_Trial","s","img/Fire_Up_Target.gif","[""img/Fire_Down_Distractor.gif"",""img/Fire_Down_Distractor.gif"",""img/Fire_Down_Distractor.gif"",""img/Fire_Down_Distractor.gif"",""img/Fire_Down_Distractor.gif"",""img/Fire_Down_Distractor.gif"",""img/Fire_Down_Distractor.gif"",""img/Fire_Down_Distractor.gif"",""img/Fire_Down_Distractor.gif"",""img/Fire_Down_Distractor.gif"",""img/Fire_Down_Distractor.gif"",""img/Fire_Down_Distractor.gif""]","5","targetUp_distractorsDown"
"","","","","","html-keyboard-response","34","1275107","0.0-14.0-0.0-0.10","5f52b69cd864aa5b51e1fc63","619531dcf66c91622fa1b861","6195a214b03721644d34ff2f","null","","null","","","","","main_T1_ITI","","","","",""
"","","","","","visual-search-circle","35","1277601","0.0-14.0-0.0-1.10","5f52b69cd864aa5b51e1fc63","619531dcf66c91622fa1b861","6195a214b03721644d34ff2f","1472","","d","true","[[591,372],[508,84],[217,11],[8,227],[91,515],[382,588]]","true","6","main_T2_Trial","d","img/Fire_Down_Target.gif","[""img/Fire_Up_Distractor.gif"",""img/Fire_Up_Distractor.gif"",""img/Fire_Up_Distractor.gif"",""img/Fire_Up_Distractor.gif"",""img/Fire_Up_Distractor.gif"",""img/Fire_Up_Distractor.gif"",""img/Fire_Up_Distractor.gif"",""img/Fire_Up_Distractor.gif"",""img/Fire_Up_Distractor.gif"",""img/Fire_Up_Distractor.gif"",""img/Fire_Up_Distractor.gif"",""img/Fire_Up_Distractor.gif""]","6","targetDown_distractorsUp"
"","","","","","html-keyboard-response","36","1277601","0.0-14.0-0.0-0.11","5f52b69cd864aa5b51e1fc63","619531dcf66c91622fa1b861","6195a214b03721644d34ff2f","null","","null","","","","","main_T1_ITI","","","","",""
"","","","","","visual-search-circle","37","1281413","0.0-14.0-0.0-1.11","5f52b69cd864aa5b51e1fc63","619531dcf66c91622fa1b861","6195a214b03721644d34ff2f","2805","","s","true","[[436,567],[599,315],[463,48],[163,32],[0,284],[136,551]]","false","6","main_T2_Trial","s","img/Fire_Up_Target.gif","[""img/Fire_Down_Distractor.gif"",""img/Fire_Down_Distractor.gif"",""img/Fire_Down_Distractor.gif"",""img/Fire_Down_Distractor.gif"",""img/Fire_Down_Distractor.gif"",""img/Fire_Down_Distractor.gif"",""img/Fire_Down_Distractor.gif"",""img/Fire_Down_Distractor.gif"",""img/Fire_Down_Distractor.gif"",""img/Fire_Down_Distractor.gif"",""img/Fire_Down_Distractor.gif"",""img/Fire_Down_Distractor.gif""]","6","targetUp_distractorsDown"
"","","","","","html-keyboard-response","38","1281415","0.0-14.0-0.0-0.12","5f52b69cd864aa5b51e1fc63","619531dcf66c91622fa1b861","6195a214b03721644d34ff2f","null","","null","","","","","main_T1_ITI","","","","",""
"","","","","","visual-search-circle","39","1284149","0.0-14.0-0.0-1.12","5f52b69cd864aa5b51e1fc63","619531dcf66c91622fa1b861","6195a214b03721644d34ff2f","1719","","s","true","[[557,454],[591,227],[454,42],[227,8],[42,145],[8,372],[145,557],[372,591]]","false","8","main_T2_Trial","s","img/Fire_Down_Target.gif","[""img/Fire_Up_Distractor.gif"",""img/Fire_Up_Distractor.gif"",""img/Fire_Up_Distractor.gif"",""img/Fire_Up_Distractor.gif"",""img/Fire_Up_Distractor.gif"",""img/Fire_Up_Distractor.gif"",""img/Fire_Up_Distractor.gif"",""img/Fire_Up_Distractor.gif"",""img/Fire_Up_Distractor.gif"",""img/Fire_Up_Distractor.gif"",""img/Fire_Up_Distractor.gif"",""img/Fire_Up_Distractor.gif""]","8","targetDown_distractorsUp"
"","","","","","html-keyboard-response","40","1284150","0.0-14.0-0.0-0.13","5f52b69cd864aa5b51e1fc63","619531dcf66c91622fa1b861","6195a214b03721644d34ff2f","null","","null","","","","","main_T1_ITI","","","","",""
"","","","","","visual-search-circle","41","1286124","0.0-14.0-0.0-1.13","5f52b69cd864aa5b51e1fc63","619531dcf66c91622fa1b861","6195a214b03721644d34ff2f","964","","d","true","[[284,0],[55,125],[11,381],[184,576],[444,563],[595,351],[524,100]]","true","7","main_T2_Trial","d","img/Fire_Up_Target.gif","[""img/Fire_Down_Distractor.gif"",""img/Fire_Down_Distractor.gif"",""img/Fire_Down_Distractor.gif"",""img/Fire_Down_Distractor.gif"",""img/Fire_Down_Distractor.gif"",""img/Fire_Down_Distractor.gif"",""img/Fire_Down_Distractor.gif"",""img/Fire_Down_Distractor.gif"",""img/Fire_Down_Distractor.gif"",""img/Fire_Down_Distractor.gif"",""img/Fire_Down_Distractor.gif"",""img/Fire_Down_Distractor.gif""]","7","targetUp_distractorsDown"
"","","","","","html-keyboard-response","42","1286124","0.0-14.0-0.0-0.14","5f52b69cd864aa5b51e1fc63","619531dcf66c91622fa1b861","6195a214b03721644d34ff2f","null","","null","","","","","main_T1_ITI","","","","",""
"","","","","","visual-search-circle","43","1288688","0.0-14.0-0.0-1.14","5f52b69cd864aa5b51e1fc63","619531dcf66c91622fa1b861","6195a214b03721644d34ff2f","1549","","s","true","[[352,595],[563,443],[576,183],[381,11],[124,56],[0,285],[101,524]]","false","7","main_T2_Trial","s","img/Fire_Down_Target.gif","[""img/Fire_Up_Distractor.gif"",""img/Fire_Up_Distractor.gif"",""img/Fire_Up_Distractor.gif"",""img/Fire_Up_Distractor.gif"",""img/Fire_Up_Distractor.gif"",""img/Fire_Up_Distractor.gif"",""img/Fire_Up_Distractor.gif"",""img/Fire_Up_Distractor.gif"",""img/Fire_Up_Distractor.gif"",""img/Fire_Up_Distractor.gif"",""img/Fire_Up_Distractor.gif"",""img/Fire_Up_Distractor.gif""]","7","targetDown_distractorsUp"
"","","","","","html-keyboard-response","44","1288689","0.0-14.0-0.0-0.15","5f52b69cd864aa5b51e1fc63","619531dcf66c91622fa1b861","6195a214b03721644d34ff2f","null","","null","","","","","main_T1_ITI","","","","",""
"","","","","","visual-search-circle","45","1292177","0.0-14.0-0.0-1.15","5f52b69cd864aa5b51e1fc63","619531dcf66c91622fa1b861","6195a214b03721644d34ff2f","2469","","s","true","[[346,596],[560,448],[578,188],[386,12],[129,53],[0,279],[97,521]]","false","7","main_T2_Trial","s","img/Fire_Up_Target.gif","[""img/Fire_Down_Distractor.gif"",""img/Fire_Down_Distractor.gif"",""img/Fire_Down_Distractor.gif"",""img/Fire_Down_Distractor.gif"",""img/Fire_Down_Distractor.gif"",""img/Fire_Down_Distractor.gif"",""img/Fire_Down_Distractor.gif"",""img/Fire_Down_Distractor.gif"",""img/Fire_Down_Distractor.gif"",""img/Fire_Down_Distractor.gif"",""img/Fire_Down_Distractor.gif"",""img/Fire_Down_Distractor.gif""]","7","targetUp_distractorsDown"
"","","","","","html-keyboard-response","46","1292178","0.0-14.0-0.0-0.16","5f52b69cd864aa5b51e1fc63","619531dcf66c91622fa1b861","6195a214b03721644d34ff2f","null","","null","","","","","main_T1_ITI","","","","",""
"","","","","","visual-search-circle","47","1294242","0.0-14.0-0.0-1.16","5f52b69cd864aa5b51e1fc63","619531dcf66c91622fa1b861","6195a214b03721644d34ff2f","1054","","d","true","[[569,168],[168,30],[30,431],[431,569]]","true","4","main_T2_Trial","d","img/Fire_Up_Target.gif","[""img/Fire_Down_Distractor.gif"",""img/Fire_Down_Distractor.gif"",""img/Fire_Down_Distractor.gif"",""img/Fire_Down_Distractor.gif"",""img/Fire_Down_Distractor.gif"",""img/Fire_Down_Distractor.gif"",""img/Fire_Down_Distractor.gif"",""img/Fire_Down_Distractor.gif"",""img/Fire_Down_Distractor.gif"",""img/Fire_Down_Distractor.gif"",""img/Fire_Down_Distractor.gif"",""img/Fire_Down_Distractor.gif""]","4","targetUp_distractorsDown"
"","","","","","html-keyboard-response","48","1294242","0.0-14.0-0.0-0.17","5f52b69cd864aa5b51e1fc63","619531dcf66c91622fa1b861","6195a214b03721644d34ff2f","null","","null","","","","","main_T1_ITI","","","","",""
"","","","","","visual-search-circle","49","1296671","0.0-14.0-0.0-1.17","5f52b69cd864aa5b51e1fc63","619531dcf66c91622fa1b861","6195a214b03721644d34ff2f","1424","","d","true","[[18,197],[70,492],[352,595],[581,402],[529,107],[247,4]]","true","6","main_T2_Trial","d","img/Fire_Up_Target.gif","[""img/Fire_Down_Distractor.gif"",""img/Fire_Down_Distractor.gif"",""img/Fire_Down_Distractor.gif"",""img/Fire_Down_Distractor.gif"",""img/Fire_Down_Distractor.gif"",""img/Fire_Down_Distractor.gif"",""img/Fire_Down_Distractor.gif"",""img/Fire_Down_Distractor.gif"",""img/Fire_Down_Distractor.gif"",""img/Fire_Down_Distractor.gif"",""img/Fire_Down_Distractor.gif"",""img/Fire_Down_Distractor.gif""]","6","targetUp_distractorsDown"
"","","","","","html-keyboard-response","50","1296671","0.0-14.0-0.0-0.18","5f52b69cd864aa5b51e1fc63","619531dcf66c91622fa1b861","6195a214b03721644d34ff2f","null","","null","","","","","main_T1_ITI","","","","",""
"","","","","","visual-search-circle","51","1299554","0.0-14.0-0.0-1.18","5f52b69cd864aa5b51e1fc63","619531dcf66c91622fa1b861","6195a214b03721644d34ff2f","1876","","s","true","[[66,488],[488,533],[533,111],[111,66]]","false","4","main_T2_Trial","s","img/Fire_Down_Target.gif","[""img/Fire_Up_Distractor.gif"",""img/Fire_Up_Distractor.gif"",""img/Fire_Up_Distractor.gif"",""img/Fire_Up_Distractor.gif"",""img/Fire_Up_Distractor.gif"",""img/Fire_Up_Distractor.gif"",""img/Fire_Up_Distractor.gif"",""img/Fire_Up_Distractor.gif"",""img/Fire_Up_Distractor.gif"",""img/Fire_Up_Distractor.gif"",""img/Fire_Up_Distractor.gif"",""img/Fire_Up_Distractor.gif""]","4","targetDown_distractorsUp"
"","","","","","html-keyboard-response","52","1305092","0.0-14.0-0.0-0.19","5f52b69cd864aa5b51e1fc63","619531dcf66c91622fa1b861","6195a214b03721644d34ff2f","5538","Wow! You've completed 20 out of 160 trials! </p> <p>  </p><p> Take a quick break, then press any key when you're ready to continue."," ","","","","","main_T1_ITI","","","","",""
"","","","","","visual-search-circle","53","1309217","0.0-14.0-0.0-1.19","5f52b69cd864aa5b51e1fc63","619531dcf66c91622fa1b861","6195a214b03721644d34ff2f","3117","","d","true","[[237,593],[522,500],[585,207],[362,6],[77,99],[14,392]]","true","6","main_T2_Trial","d","img/Fire_Up_Target.gif","[""img/Fire_Down_Distractor.gif"",""img/Fire_Down_Distractor.gif"",""img/Fire_Down_Distractor.gif"",""img/Fire_Down_Distractor.gif"",""img/Fire_Down_Distractor.gif"",""img/Fire_Down_Distractor.gif"",""img/Fire_Down_Distractor.gif"",""img/Fire_Down_Distractor.gif"",""img/Fire_Down_Distractor.gif"",""img/Fire_Down_Distractor.gif"",""img/Fire_Down_Distractor.gif"",""img/Fire_Down_Distractor.gif""]","6","targetUp_distractorsDown"
"","","","","","html-keyboard-response","54","1309217","0.0-14.0-0.0-0.20","5f52b69cd864aa5b51e1fc63","619531dcf66c91622fa1b861","6195a214b03721644d34ff2f","null","","null","","","","","main_T1_ITI","","","","",""
"","","","","","visual-search-circle","55","1311276","0.0-14.0-0.0-1.20","5f52b69cd864aa5b51e1fc63","619531dcf66c91622fa1b861","6195a214b03721644d34ff2f","1047","","s","true","[[480,539],[597,341],[539,119],[341,2],[119,60],[2,258],[60,480],[258,597]]","false","8","main_T2_Trial","s","img/Fire_Up_Target.gif","[""img/Fire_Down_Distractor.gif"",""img/Fire_Down_Distractor.gif"",""img/Fire_Down_Distractor.gif"",""img/Fire_Down_Distractor.gif"",""img/Fire_Down_Distractor.gif"",""img/Fire_Down_Distractor.gif"",""img/Fire_Down_Distractor.gif"",""img/Fire_Down_Distractor.gif"",""img/Fire_Down_Distractor.gif"",""img/Fire_Down_Distractor.gif"",""img/Fire_Down_Distractor.gif"",""img/Fire_Down_Distractor.gif""]","8","targetUp_distractorsDown"
"","","","","","html-keyboard-response","56","1311277","0.0-14.0-0.0-0.21","5f52b69cd864aa5b51e1fc63","619531dcf66c91622fa1b861","6195a214b03721644d34ff2f","null","","null","","","","","main_T1_ITI","","","","",""
"","","","","","visual-search-circle","57","1313185","0.0-14.0-0.0-1.21","5f52b69cd864aa5b51e1fc63","619531dcf66c91622fa1b861","6195a214b03721644d34ff2f","902","","d","true","[[583,397],[553,139],[332,1],[86,88],[2,335],[141,554],[400,582]]","true","7","main_T2_Trial","d","img/Fire_Down_Target.gif","[""img/Fire_Up_Distractor.gif"",""img/Fire_Up_Distractor.gif"",""img/Fire_Up_Distractor.gif"",""img/Fire_Up_Distractor.gif"",""img/Fire_Up_Distractor.gif"",""img/Fire_Up_Distractor.gif"",""img/Fire_Up_Distractor.gif"",""img/Fire_Up_Distractor.gif"",""img/Fire_Up_Distractor.gif"",""img/Fire_Up_Distractor.gif"",""img/Fire_Up_Distractor.gif"",""img/Fire_Up_Distractor.gif""]","7","targetDown_distractorsUp"
"","","","","","html-keyboard-response","58","1313185","0.0-14.0-0.0-0.22","5f52b69cd864aa5b51e1fc63","619531dcf66c91622fa1b861","6195a214b03721644d34ff2f","null","","null","","","","","main_T1_ITI","","","","",""
"","","","","","visual-search-circle","59","1316328","0.0-14.0-0.0-1.22","5f52b69cd864aa5b51e1fc63","619531dcf66c91622fa1b861","6195a214b03721644d34ff2f","2129","","s","true","[[542,476],[542,123],[207,14],[0,299],[207,585]]","false","5","main_T2_Trial","s","img/Fire_Up_Target.gif","[""img/Fire_Down_Distractor.gif"",""img/Fire_Down_Distractor.gif"",""img/Fire_Down_Distractor.gif"",""img/Fire_Down_Distractor.gif"",""img/Fire_Down_Distractor.gif"",""img/Fire_Down_Distractor.gif"",""img/Fire_Down_Distractor.gif"",""img/Fire_Down_Distractor.gif"",""img/Fire_Down_Distractor.gif"",""img/Fire_Down_Distractor.gif"",""img/Fire_Down_Distractor.gif"",""img/Fire_Down_Distractor.gif""]","5","targetUp_distractorsDown"
"","","","","","html-keyboard-response","60","1316328","0.0-14.0-0.0-0.23","5f52b69cd864aa5b51e1fc63","619531dcf66c91622fa1b861","6195a214b03721644d34ff2f","null","","null","","","","","main_T1_ITI","","","","",""
"","","","","","visual-search-circle","61","1318914","0.0-14.0-0.0-1.23","5f52b69cd864aa5b51e1fc63","619531dcf66c91622fa1b861","6195a214b03721644d34ff2f","1567","","s","true","[[567,436],[436,32],[32,163],[163,567]]","false","4","main_T2_Trial","s","img/Fire_Up_Target.gif","[""img/Fire_Down_Distractor.gif"",""img/Fire_Down_Distractor.gif"",""img/Fire_Down_Distractor.gif"",""img/Fire_Down_Distractor.gif"",""img/Fire_Down_Distractor.gif"",""img/Fire_Down_Distractor.gif"",""img/Fire_Down_Distractor.gif"",""img/Fire_Down_Distractor.gif"",""img/Fire_Down_Distractor.gif"",""img/Fire_Down_Distractor.gif"",""img/Fire_Down_Distractor.gif"",""img/Fire_Down_Distractor.gif""]","4","targetUp_distractorsDown"
"","","","","","html-keyboard-response","62","1318915","0.0-14.0-0.0-0.24","5f52b69cd864aa5b51e1fc63","619531dcf66c91622fa1b861","6195a214b03721644d34ff2f","null","","null","","","","","main_T1_ITI","","","","",""
"","","","","","visual-search-circle","63","1322135","0.0-14.0-0.0-1.24","5f52b69cd864aa5b51e1fc63","619531dcf66c91622fa1b861","6195a214b03721644d34ff2f","2215","","d","true","[[533,488],[592,235],[432,30],[171,28],[8,231],[64,485],[297,599]]","true","7","main_T2_Trial","d","img/Fire_Up_Target.gif","[""img/Fire_Down_Distractor.gif"",""img/Fire_Down_Distractor.gif"",""img/Fire_Down_Distractor.gif"",""img/Fire_Down_Distractor.gif"",""img/Fire_Down_Distractor.gif"",""img/Fire_Down_Distractor.gif"",""img/Fire_Down_Distractor.gif"",""img/Fire_Down_Distractor.gif"",""img/Fire_Down_Distractor.gif"",""img/Fire_Down_Distractor.gif"",""img/Fire_Down_Distractor.gif"",""img/Fire_Down_Distractor.gif""]","7","targetUp_distractorsDown"
"","","","","","html-keyboard-response","64","1322135","0.0-14.0-0.0-0.25","5f52b69cd864aa5b51e1fc63","619531dcf66c91622fa1b861","6195a214b03721644d34ff2f","null","","null","","","","","main_T1_ITI","","","","",""
"","","","","","visual-search-circle","65","1324018","0.0-14.0-0.0-1.25","5f52b69cd864aa5b51e1fc63","619531dcf66c91622fa1b861","6195a214b03721644d34ff2f","868","","d","true","[[599,315],[522,99],[315,0],[99,77],[0,284],[77,500],[284,599],[500,522]]","true","8","main_T2_Trial","d","img/Fire_Up_Target.gif","[""img/Fire_Down_Distractor.gif"",""img/Fire_Down_Distractor.gif"",""img/Fire_Down_Distractor.gif"",""img/Fire_Down_Distractor.gif"",""img/Fire_Down_Distractor.gif"",""img/Fire_Down_Distractor.gif"",""img/Fire_Down_Distractor.gif"",""img/Fire_Down_Distractor.gif"",""img/Fire_Down_Distractor.gif"",""img/Fire_Down_Distractor.gif"",""img/Fire_Down_Distractor.gif"",""img/Fire_Down_Distractor.gif""]","8","targetUp_distractorsDown"
"","","","","","html-keyboard-response","66","1324019","0.0-14.0-0.0-0.26","5f52b69cd864aa5b51e1fc63","619531dcf66c91622fa1b861","6195a214b03721644d34ff2f","null","","null","","","","","main_T1_ITI","","","","",""
"","","","","","visual-search-circle","67","1326760","0.0-14.0-0.0-1.26","5f52b69cd864aa5b51e1fc63","619531dcf66c91622fa1b861","6195a214b03721644d34ff2f","1722","","s","true","[[382,11],[91,84],[8,372],[217,588],[508,515],[591,227]]","false","6","main_T2_Trial","s","img/Fire_Up_Target.gif","[""img/Fire_Down_Distractor.gif"",""img/Fire_Down_Distractor.gif"",""img/Fire_Down_Distractor.gif"",""img/Fire_Down_Distractor.gif"",""img/Fire_Down_Distractor.gif"",""img/Fire_Down_Distractor.gif"",""img/Fire_Down_Distractor.gif"",""img/Fire_Down_Distractor.gif"",""img/Fire_Down_Distractor.gif"",""img/Fire_Down_Distractor.gif"",""img/Fire_Down_Distractor.gif"",""img/Fire_Down_Distractor.gif""]","6","targetUp_distractorsDown"
"","","","","","html-keyboard-response","68","1326760","0.0-14.0-0.0-0.27","5f52b69cd864aa5b51e1fc63","619531dcf66c91622fa1b861","6195a214b03721644d34ff2f","null","","null","","","","","main_T1_ITI","","","","",""
"","","","","","visual-search-circle","69","1330671","0.0-14.0-0.0-1.27","5f52b69cd864aa5b51e1fc63","619531dcf66c91622fa1b861","6195a214b03721644d34ff2f","2893","","s","true","[[159,35],[35,440],[440,564],[564,159]]","false","4","main_T2_Trial","s","img/Fire_Up_Target.gif","[""img/Fire_Down_Distractor.gif"",""img/Fire_Down_Distractor.gif"",""img/Fire_Down_Distractor.gif"",""img/Fire_Down_Distractor.gif"",""img/Fire_Down_Distractor.gif"",""img/Fire_Down_Distractor.gif"",""img/Fire_Down_Distractor.gif"",""img/Fire_Down_Distractor.gif"",""img/Fire_Down_Distractor.gif"",""img/Fire_Down_Distractor.gif"",""img/Fire_Down_Distractor.gif"",""img/Fire_Down_Distractor.gif""]","4","targetUp_distractorsDown"
"","","","","","html-keyboard-response","70","1330671","0.0-14.0-0.0-0.28","5f52b69cd864aa5b51e1fc63","619531dcf66c91622fa1b861","6195a214b03721644d34ff2f","null","","null","","","","","main_T1_ITI","","","","",""
"","","","","","visual-search-circle","71","1333139","0.0-14.0-0.0-1.28","5f52b69cd864aa5b51e1fc63","619531dcf66c91622fa1b861","6195a214b03721644d34ff2f","1450","","d","true","[[591,227],[320,0],[21,187],[107,529],[458,554]]","true","5","main_T2_Trial","d","img/Fire_Down_Target.gif","[""img/Fire_Up_Distractor.gif"",""img/Fire_Up_Distractor.gif"",""img/Fire_Up_Distractor.gif"",""img/Fire_Up_Distractor.gif"",""img/Fire_Up_Distractor.gif"",""img/Fire_Up_Distractor.gif"",""img/Fire_Up_Distractor.gif"",""img/Fire_Up_Distractor.gif"",""img/Fire_Up_Distractor.gif"",""img/Fire_Up_Distractor.gif"",""img/Fire_Up_Distractor.gif"",""img/Fire_Up_Distractor.gif""]","5","targetDown_distractorsUp"
"","","","","","html-keyboard-response","72","1333139","0.0-14.0-0.0-0.29","5f52b69cd864aa5b51e1fc63","619531dcf66c91622fa1b861","6195a214b03721644d34ff2f","null","","null","","","","","main_T1_ITI","","","","",""
"","","","","","visual-search-circle","73","1336243","0.0-14.0-0.0-1.29","5f52b69cd864aa5b51e1fc63","619531dcf66c91622fa1b861","6195a214b03721644d34ff2f","2082","","s","true","[[592,232],[458,45],[232,7],[45,141],[7,367],[141,554],[367,592],[554,458]]","false","8","main_T2_Trial","s","img/Fire_Up_Target.gif","[""img/Fire_Down_Distractor.gif"",""img/Fire_Down_Distractor.gif"",""img/Fire_Down_Distractor.gif"",""img/Fire_Down_Distractor.gif"",""img/Fire_Down_Distractor.gif"",""img/Fire_Down_Distractor.gif"",""img/Fire_Down_Distractor.gif"",""img/Fire_Down_Distractor.gif"",""img/Fire_Down_Distractor.gif"",""img/Fire_Down_Distractor.gif"",""img/Fire_Down_Distractor.gif"",""img/Fire_Down_Distractor.gif""]","8","targetUp_distractorsDown"
"","","","","","html-keyboard-response","74","1336243","0.0-14.0-0.0-0.30","5f52b69cd864aa5b51e1fc63","619531dcf66c91622fa1b861","6195a214b03721644d34ff2f","null","","null","","","","","main_T1_ITI","","","","",""
"","","","","","visual-search-circle","75","1341015","0.0-14.0-0.0-1.30","5f52b69cd864aa5b51e1fc63","619531dcf66c91622fa1b861","6195a214b03721644d34ff2f","3766","","s","true","[[95,80],[0,289],[80,504],[289,599],[504,519],[599,310],[519,95],[310,0]]","false","8","main_T2_Trial","s","img/Fire_Down_Target.gif","[""img/Fire_Up_Distractor.gif"",""img/Fire_Up_Distractor.gif"",""img/Fire_Up_Distractor.gif"",""img/Fire_Up_Distractor.gif"",""img/Fire_Up_Distractor.gif"",""img/Fire_Up_Distractor.gif"",""img/Fire_Up_Distractor.gif"",""img/Fire_Up_Distractor.gif"",""img/Fire_Up_Distractor.gif"",""img/Fire_Up_Distractor.gif"",""img/Fire_Up_Distractor.gif"",""img/Fire_Up_Distractor.gif""]","8","targetDown_distractorsUp"
"","","","","","html-keyboard-response","76","1341015","0.0-14.0-0.0-0.31","5f52b69cd864aa5b51e1fc63","619531dcf66c91622fa1b861","6195a214b03721644d34ff2f","null","","null","","","","","main_T1_ITI","","","","",""
"","","","","","visual-search-circle","77","1343080","0.0-14.0-0.0-1.31","5f52b69cd864aa5b51e1fc63","619531dcf66c91622fa1b861","6195a214b03721644d34ff2f","1053","","d","true","[[279,0],[8,227],[141,554],[492,529],[578,187]]","true","5","main_T2_Trial","d","img/Fire_Down_Target.gif","[""img/Fire_Up_Distractor.gif"",""img/Fire_Up_Distractor.gif"",""img/Fire_Up_Distractor.gif"",""img/Fire_Up_Distractor.gif"",""img/Fire_Up_Distractor.gif"",""img/Fire_Up_Distractor.gif"",""img/Fire_Up_Distractor.gif"",""img/Fire_Up_Distractor.gif"",""img/Fire_Up_Distractor.gif"",""img/Fire_Up_Distractor.gif"",""img/Fire_Up_Distractor.gif"",""img/Fire_Up_Distractor.gif""]","5","targetDown_distractorsUp"
"","","","","","html-keyboard-response","78","1343081","0.0-14.0-0.0-0.32","5f52b69cd864aa5b51e1fc63","619531dcf66c91622fa1b861","6195a214b03721644d34ff2f","null","","null","","","","","main_T1_ITI","","","","",""
"","","","","","visual-search-circle","79","1347569","0.0-14.0-0.0-1.32","5f52b69cd864aa5b51e1fc63","619531dcf66c91622fa1b861","6195a214b03721644d34ff2f","3481","","s","true","[[372,8],[8,227],[227,591],[591,372]]","false","4","main_T2_Trial","s","img/Fire_Down_Target.gif","[""img/Fire_Up_Distractor.gif"",""img/Fire_Up_Distractor.gif"",""img/Fire_Up_Distractor.gif"",""img/Fire_Up_Distractor.gif"",""img/Fire_Up_Distractor.gif"",""img/Fire_Up_Distractor.gif"",""img/Fire_Up_Distractor.gif"",""img/Fire_Up_Distractor.gif"",""img/Fire_Up_Distractor.gif"",""img/Fire_Up_Distractor.gif"",""img/Fire_Up_Distractor.gif"",""img/Fire_Up_Distractor.gif""]","4","targetDown_distractorsUp"
"","","","","","html-keyboard-response","80","1347569","0.0-14.0-0.0-0.33","5f52b69cd864aa5b51e1fc63","619531dcf66c91622fa1b861","6195a214b03721644d34ff2f","null","","null","","","","","main_T1_ITI","","","","",""
"","","","","","visual-search-circle","81","1350794","0.0-14.0-0.0-1.33","5f52b69cd864aa5b51e1fc63","619531dcf66c91622fa1b861","6195a214b03721644d34ff2f","2216","","d","true","[[168,30],[16,202],[30,431],[202,583],[431,569],[583,397],[569,168],[397,16]]","true","8","main_T2_Trial","d","img/Fire_Up_Target.gif","[""img/Fire_Down_Distractor.gif"",""img/Fire_Down_Distractor.gif"",""img/Fire_Down_Distractor.gif"",""img/Fire_Down_Distractor.gif"",""img/Fire_Down_Distractor.gif"",""img/Fire_Down_Distractor.gif"",""img/Fire_Down_Distractor.gif"",""img/Fire_Down_Distractor.gif"",""img/Fire_Down_Distractor.gif"",""img/Fire_Down_Distractor.gif"",""img/Fire_Down_Distractor.gif"",""img/Fire_Down_Distractor.gif""]","8","targetUp_distractorsDown"
"","","","","","html-keyboard-response","82","1350794","0.0-14.0-0.0-0.34","5f52b69cd864aa5b51e1fc63","619531dcf66c91622fa1b861","6195a214b03721644d34ff2f","null","","null","","","","","main_T1_ITI","","","","",""
"","","","","","visual-search-circle","83","1353084","0.0-14.0-0.0-1.34","5f52b69cd864aa5b51e1fc63","619531dcf66c91622fa1b861","6195a214b03721644d34ff2f","1285","","s","true","[[30,168],[16,397],[168,569],[397,583],[569,431],[583,202],[431,30],[202,16]]","false","8","main_T2_Trial","s","img/Fire_Down_Target.gif","[""img/Fire_Up_Distractor.gif"",""img/Fire_Up_Distractor.gif"",""img/Fire_Up_Distractor.gif"",""img/Fire_Up_Distractor.gif"",""img/Fire_Up_Distractor.gif"",""img/Fire_Up_Distractor.gif"",""img/Fire_Up_Distractor.gif"",""img/Fire_Up_Distractor.gif"",""img/Fire_Up_Distractor.gif"",""img/Fire_Up_Distractor.gif"",""img/Fire_Up_Distractor.gif"",""img/Fire_Up_Distractor.gif""]","8","targetDown_distractorsUp"
"","","","","","html-keyboard-response","84","1353084","0.0-14.0-0.0-0.35","5f52b69cd864aa5b51e1fc63","619531dcf66c91622fa1b861","6195a214b03721644d34ff2f","null","","null","","","","","main_T1_ITI","","","","",""
"","","","","","visual-search-circle","85","1357312","0.0-14.0-0.0-1.35","5f52b69cd864aa5b51e1fc63","619531dcf66c91622fa1b861","6195a214b03721644d34ff2f","3224","","s","true","[[273,1],[1,326],[326,598],[598,273]]","false","4","main_T2_Trial","s","img/Fire_Down_Target.gif","[""img/Fire_Up_Distractor.gif"",""img/Fire_Up_Distractor.gif"",""img/Fire_Up_Distractor.gif"",""img/Fire_Up_Distractor.gif"",""img/Fire_Up_Distractor.gif"",""img/Fire_Up_Distractor.gif"",""img/Fire_Up_Distractor.gif"",""img/Fire_Up_Distractor.gif"",""img/Fire_Up_Distractor.gif"",""img/Fire_Up_Distractor.gif"",""img/Fire_Up_Distractor.gif"",""img/Fire_Up_Distractor.gif""]","4","targetDown_distractorsUp"
"","","","","","html-keyboard-response","86","1357313","0.0-14.0-0.0-0.36","5f52b69cd864aa5b51e1fc63","619531dcf66c91622fa1b861","6195a214b03721644d34ff2f","null","","null","","","","","main_T1_ITI","","","","",""
"","","","","","visual-search-circle","87","1361261","0.0-14.0-0.0-1.36","5f52b69cd864aa5b51e1fc63","619531dcf66c91622fa1b861","6195a214b03721644d34ff2f","2932","","s","true","[[542,476],[574,177],[331,1],[57,123],[25,422],[268,598]]","false","6","main_T2_Trial","s","img/Fire_Down_Target.gif","[""img/Fire_Up_Distractor.gif"",""img/Fire_Up_Distractor.gif"",""img/Fire_Up_Distractor.gif"",""img/Fire_Up_Distractor.gif"",""img/Fire_Up_Distractor.gif"",""img/Fire_Up_Distractor.gif"",""img/Fire_Up_Distractor.gif"",""img/Fire_Up_Distractor.gif"",""img/Fire_Up_Distractor.gif"",""img/Fire_Up_Distractor.gif"",""img/Fire_Up_Distractor.gif"",""img/Fire_Up_Distractor.gif""]","6","targetDown_distractorsUp"
"","","","","","html-keyboard-response","88","1361261","0.0-14.0-0.0-0.37","5f52b69cd864aa5b51e1fc63","619531dcf66c91622fa1b861","6195a214b03721644d34ff2f","null","","null","","","","","main_T1_ITI","","","","",""
"","","","","","visual-search-circle","89","1367383","0.0-14.0-0.0-1.37","5f52b69cd864aa5b51e1fc63","619531dcf66c91622fa1b861","6195a214b03721644d34ff2f","5106","","d","true","[[237,593],[522,500],[585,207],[362,6],[77,99],[14,392]]","true","6","main_T2_Trial","d","img/Fire_Down_Target.gif","[""img/Fire_Up_Distractor.gif"",""img/Fire_Up_Distractor.gif"",""img/Fire_Up_Distractor.gif"",""img/Fire_Up_Distractor.gif"",""img/Fire_Up_Distractor.gif"",""img/Fire_Up_Distractor.gif"",""img/Fire_Up_Distractor.gif"",""img/Fire_Up_Distractor.gif"",""img/Fire_Up_Distractor.gif"",""img/Fire_Up_Distractor.gif"",""img/Fire_Up_Distractor.gif"",""img/Fire_Up_Distractor.gif""]","6","targetDown_distractorsUp"
"","","","","","html-keyboard-response","90","1367384","0.0-14.0-0.0-0.38","5f52b69cd864aa5b51e1fc63","619531dcf66c91622fa1b861","6195a214b03721644d34ff2f","null","","null","","","","","main_T1_ITI","","","","",""
"","","","","","visual-search-circle","91","1381567","0.0-14.0-0.0-1.38","5f52b69cd864aa5b51e1fc63","619531dcf66c91622fa1b861","6195a214b03721644d34ff2f","13179","","d","true","[[599,294],[294,0],[0,305],[305,599]]","true","4","main_T2_Trial","d","img/Fire_Up_Target.gif","[""img/Fire_Down_Distractor.gif"",""img/Fire_Down_Distractor.gif"",""img/Fire_Down_Distractor.gif"",""img/Fire_Down_Distractor.gif"",""img/Fire_Down_Distractor.gif"",""img/Fire_Down_Distractor.gif"",""img/Fire_Down_Distractor.gif"",""img/Fire_Down_Distractor.gif"",""img/Fire_Down_Distractor.gif"",""img/Fire_Down_Distractor.gif"",""img/Fire_Down_Distractor.gif"",""img/Fire_Down_Distractor.gif""]","4","targetUp_distractorsDown"
"","","","","","html-keyboard-response","92","1383185","0.0-14.0-0.0-0.39","5f52b69cd864aa5b51e1fc63","619531dcf66c91622fa1b861","6195a214b03721644d34ff2f","1616","Wow! You've completed 40 out of 160 trials! </p> <p>  </p><p> Take a quick break, then press any key when you're ready to continue."," ","","","","","main_T1_ITI","","","","",""
"","","","","","visual-search-circle","93","1385986","0.0-14.0-0.0-1.39","5f52b69cd864aa5b51e1fc63","619531dcf66c91622fa1b861","6195a214b03721644d34ff2f","1798","","s","true","[[1,331],[177,574],[476,542],[598,268],[422,25],[123,57]]","false","6","main_T2_Trial","s","img/Fire_Up_Target.gif","[""img/Fire_Down_Distractor.gif"",""img/Fire_Down_Distractor.gif"",""img/Fire_Down_Distractor.gif"",""img/Fire_Down_Distractor.gif"",""img/Fire_Down_Distractor.gif"",""img/Fire_Down_Distractor.gif"",""img/Fire_Down_Distractor.gif"",""img/Fire_Down_Distractor.gif"",""img/Fire_Down_Distractor.gif"",""img/Fire_Down_Distractor.gif"",""img/Fire_Down_Distractor.gif"",""img/Fire_Down_Distractor.gif""]","6","targetUp_distractorsDown"
"","","","","","html-keyboard-response","94","1385987","0.0-14.0-0.0-0.40","5f52b69cd864aa5b51e1fc63","619531dcf66c91622fa1b861","6195a214b03721644d34ff2f","null","","null","","","","","main_T1_ITI","","","","",""
"","","","","","visual-search-circle","95","1396415","0.0-14.0-0.0-1.40","5f52b69cd864aa5b51e1fc63","619531dcf66c91622fa1b861","6195a214b03721644d34ff2f","9416","","s","true","[[595,352],[524,101],[285,0],[56,124],[11,381],[183,576],[443,563]]","false","7","main_T2_Trial","s","img/Fire_Down_Target.gif","[""img/Fire_Up_Distractor.gif"",""img/Fire_Up_Distractor.gif"",""img/Fire_Up_Distractor.gif"",""img/Fire_Up_Distractor.gif"",""img/Fire_Up_Distractor.gif"",""img/Fire_Up_Distractor.gif"",""img/Fire_Up_Distractor.gif"",""img/Fire_Up_Distractor.gif"",""img/Fire_Up_Distractor.gif"",""img/Fire_Up_Distractor.gif"",""img/Fire_Up_Distractor.gif"",""img/Fire_Up_Distractor.gif""]","7","targetDown_distractorsUp"
"","","","","","html-keyboard-response","96","1396417","0.0-14.0-0.0-0.41","5f52b69cd864aa5b51e1fc63","619531dcf66c91622fa1b861","6195a214b03721644d34ff2f","null","","null","","","","","main_T1_ITI","","","","",""
"","","","","","visual-search-circle","97","1399372","0.0-14.0-0.0-1.41","5f52b69cd864aa5b51e1fc63","619531dcf66c91622fa1b861","6195a214b03721644d34ff2f","1942","","d","true","[[422,574],[590,375],[540,120],[308,0],[71,106],[5,357],[161,566]]","true","7","main_T2_Trial","d","img/Fire_Down_Target.gif","[""img/Fire_Up_Distractor.gif"",""img/Fire_Up_Distractor.gif"",""img/Fire_Up_Distractor.gif"",""img/Fire_Up_Distractor.gif"",""img/Fire_Up_Distractor.gif"",""img/Fire_Up_Distractor.gif"",""img/Fire_Up_Distractor.gif"",""img/Fire_Up_Distractor.gif"",""img/Fire_Up_Distractor.gif"",""img/Fire_Up_Distractor.gif"",""img/Fire_Up_Distractor.gif"",""img/Fire_Up_Distractor.gif""]","7","targetDown_distractorsUp"
"","","","","","html-keyboard-response","98","1399372","0.0-14.0-0.0-0.42","5f52b69cd864aa5b51e1fc63","619531dcf66c91622fa1b861","6195a214b03721644d34ff2f","null","","null","","","","","main_T1_ITI","","","","",""
"","","","","","visual-search-circle","99","1401638","0.0-14.0-0.0-1.42","5f52b69cd864aa5b51e1fc63","619531dcf66c91622fa1b861","6195a214b03721644d34ff2f","1261","","d","true","[[3,253],[253,596],[596,346],[346,3]]","true","4","main_T2_Trial","d","img/Fire_Down_Target.gif","[""img/Fire_Up_Distractor.gif"",""img/Fire_Up_Distractor.gif"",""img/Fire_Up_Distractor.gif"",""img/Fire_Up_Distractor.gif"",""img/Fire_Up_Distractor.gif"",""img/Fire_Up_Distractor.gif"",""img/Fire_Up_Distractor.gif"",""img/Fire_Up_Distractor.gif"",""img/Fire_Up_Distractor.gif"",""img/Fire_Up_Distractor.gif"",""img/Fire_Up_Distractor.gif"",""img/Fire_Up_Distractor.gif""]","4","targetDown_distractorsUp"
"","","","","","html-keyboard-response","100","1401638","0.0-14.0-0.0-0.43","5f52b69cd864aa5b51e1fc63","619531dcf66c91622fa1b861","6195a214b03721644d34ff2f","null","","null","","","","","main_T1_ITI","","","","",""
"","","","","","visual-search-circle","101","1404138","0.0-14.0-0.0-1.43","5f52b69cd864aa5b51e1fc63","619531dcf66c91622fa1b861","6195a214b03721644d34ff2f","1480","","s","true","[[6,237],[68,490],[304,599],[537,483],[591,228],[426,27],[165,31]]","false","7","main_T2_Trial","s","img/Fire_Up_Target.gif","[""img/Fire_Down_Distractor.gif"",""img/Fire_Down_Distractor.gif"",""img/Fire_Down_Distractor.gif"",""img/Fire_Down_Distractor.gif"",""img/Fire_Down_Distractor.gif"",""img/Fire_Down_Distractor.gif"",""img/Fire_Down_Distractor.gif"",""img/Fire_Down_Distractor.gif"",""img/Fire_Down_Distractor.gif"",""img/Fire_Down_Distractor.gif"",""img/Fire_Down_Distractor.gif"",""img/Fire_Down_Distractor.gif""]","7","targetUp_distractorsDown"
"","","","","","html-keyboard-response","102","1404139","0.0-14.0-0.0-0.44","5f52b69cd864aa5b51e1fc63","619531dcf66c91622fa1b861","6195a214b03721644d34ff2f","null","","null","","","","","main_T1_ITI","","","","",""
"","","","","","visual-search-circle","103","1406888","0.0-14.0-0.0-1.44","5f52b69cd864aa5b51e1fc63","619531dcf66c91622fa1b861","6195a214b03721644d34ff2f","1740","","s","true","[[289,0],[11,217],[132,548],[484,536],[581,197]]","false","5","main_T2_Trial","s","img/Fire_Up_Target.gif","[""img/Fire_Down_Distractor.gif"",""img/Fire_Down_Distractor.gif"",""img/Fire_Down_Distractor.gif"",""img/Fire_Down_Distractor.gif"",""img/Fire_Down_Distractor.gif"",""img/Fire_Down_Distractor.gif"",""img/Fire_Down_Distractor.gif"",""img/Fire_Down_Distractor.gif"",""img/Fire_Down_Distractor.gif"",""img/Fire_Down_Distractor.gif"",""img/Fire_Down_Distractor.gif"",""img/Fire_Down_Distractor.gif""]","5","targetUp_distractorsDown"
"","","","","","html-keyboard-response","104","1406889","0.0-14.0-0.0-0.45","5f52b69cd864aa5b51e1fc63","619531dcf66c91622fa1b861","6195a214b03721644d34ff2f","null","","null","","","","","main_T1_ITI","","","","",""
"","","","","","visual-search-circle","105","1409062","0.0-14.0-0.0-1.45","5f52b69cd864aa5b51e1fc63","619531dcf66c91622fa1b861","6195a214b03721644d34ff2f","1163","","d","true","[[402,18],[107,70],[4,352],[197,581],[492,529],[595,247]]","true","6","main_T2_Trial","d","img/Fire_Up_Target.gif","[""img/Fire_Down_Distractor.gif"",""img/Fire_Down_Distractor.gif"",""img/Fire_Down_Distractor.gif"",""img/Fire_Down_Distractor.gif"",""img/Fire_Down_Distractor.gif"",""img/Fire_Down_Distractor.gif"",""img/Fire_Down_Distractor.gif"",""img/Fire_Down_Distractor.gif"",""img/Fire_Down_Distractor.gif"",""img/Fire_Down_Distractor.gif"",""img/Fire_Down_Distractor.gif"",""img/Fire_Down_Distractor.gif""]","6","targetUp_distractorsDown"
"","","","","","html-keyboard-response","106","1409063","0.0-14.0-0.0-0.46","5f52b69cd864aa5b51e1fc63","619531dcf66c91622fa1b861","6195a214b03721644d34ff2f","null","","null","","","","","main_T1_ITI","","","","",""
"","","","","","visual-search-circle","107","1412712","0.0-14.0-0.0-1.46","5f52b69cd864aa5b51e1fc63","619531dcf66c91622fa1b861","6195a214b03721644d34ff2f","2645","","s","true","[[10,222],[58,478],[288,599],[527,495],[594,244],[440,34],[180,25]]","false","7","main_T2_Trial","s","img/Fire_Down_Target.gif","[""img/Fire_Up_Distractor.gif"",""img/Fire_Up_Distractor.gif"",""img/Fire_Up_Distractor.gif"",""img/Fire_Up_Distractor.gif"",""img/Fire_Up_Distractor.gif"",""img/Fire_Up_Distractor.gif"",""img/Fire_Up_Distractor.gif"",""img/Fire_Up_Distractor.gif"",""img/Fire_Up_Distractor.gif"",""img/Fire_Up_Distractor.gif"",""img/Fire_Up_Distractor.gif"",""img/Fire_Up_Distractor.gif""]","7","targetDown_distractorsUp"
"","","","","","html-keyboard-response","108","1412713","0.0-14.0-0.0-0.47","5f52b69cd864aa5b51e1fc63","619531dcf66c91622fa1b861","6195a214b03721644d34ff2f","null","","null","","","","","main_T1_ITI","","","","",""
"","","","","","visual-search-circle","109","1414827","0.0-14.0-0.0-1.47","5f52b69cd864aa5b51e1fc63","619531dcf66c91622fa1b861","6195a214b03721644d34ff2f","1100","","s","true","[[522,99],[177,25],[1,331],[237,593],[559,450]]","false","5","main_T2_Trial","s","img/Fire_Up_Target.gif","[""img/Fire_Down_Distractor.gif"",""img/Fire_Down_Distractor.gif"",""img/Fire_Down_Distractor.gif"",""img/Fire_Down_Distractor.gif"",""img/Fire_Down_Distractor.gif"",""img/Fire_Down_Distractor.gif"",""img/Fire_Down_Distractor.gif"",""img/Fire_Down_Distractor.gif"",""img/Fire_Down_Distractor.gif"",""img/Fire_Down_Distractor.gif"",""img/Fire_Down_Distractor.gif"",""img/Fire_Down_Distractor.gif""]","5","targetUp_distractorsDown"
"","","","","","html-keyboard-response","110","1414828","0.0-14.0-0.0-0.48","5f52b69cd864aa5b51e1fc63","619531dcf66c91622fa1b861","6195a214b03721644d34ff2f","null","","null","","","","","main_T1_ITI","","","","",""
"","","","","","visual-search-circle","111","1418180","0.0-14.0-0.0-1.48","5f52b69cd864aa5b51e1fc63","619531dcf66c91622fa1b861","6195a214b03721644d34ff2f","2331","","d","true","[[10,377],[284,599],[580,407],[488,66],[136,48]]","true","5","main_T2_Trial","d","img/Fire_Down_Target.gif","[""img/Fire_Up_Distractor.gif"",""img/Fire_Up_Distractor.gif"",""img/Fire_Up_Distractor.gif"",""img/Fire_Up_Distractor.gif"",""img/Fire_Up_Distractor.gif"",""img/Fire_Up_Distractor.gif"",""img/Fire_Up_Distractor.gif"",""img/Fire_Up_Distractor.gif"",""img/Fire_Up_Distractor.gif"",""img/Fire_Up_Distractor.gif"",""img/Fire_Up_Distractor.gif"",""img/Fire_Up_Distractor.gif""]","5","targetDown_distractorsUp"
"","","","","","html-keyboard-response","112","1418180","0.0-14.0-0.0-0.49","5f52b69cd864aa5b51e1fc63","619531dcf66c91622fa1b861","6195a214b03721644d34ff2f","null","","null","","","","","main_T1_ITI","","","","",""
"","","","","","visual-search-circle","113","1420755","0.0-14.0-0.0-1.49","5f52b69cd864aa5b51e1fc63","619531dcf66c91622fa1b861","6195a214b03721644d34ff2f","1567","","d","true","[[310,599],[588,382],[467,51],[115,63],[18,402]]","true","5","main_T2_Trial","d","img/Fire_Up_Target.gif","[""img/Fire_Down_Distractor.gif"",""img/Fire_Down_Distractor.gif"",""img/Fire_Down_Distractor.gif"",""img/Fire_Down_Distractor.gif"",""img/Fire_Down_Distractor.gif"",""img/Fire_Down_Distractor.gif"",""img/Fire_Down_Distractor.gif"",""img/Fire_Down_Distractor.gif"",""img/Fire_Down_Distractor.gif"",""img/Fire_Down_Distractor.gif"",""img/Fire_Down_Distractor.gif"",""img/Fire_Down_Distractor.gif""]","5","targetUp_distractorsDown"
"","","","","","html-keyboard-response","114","1420755","0.0-14.0-0.0-0.50","5f52b69cd864aa5b51e1fc63","619531dcf66c91622fa1b861","6195a214b03721644d34ff2f","null","","null","","","","","main_T1_ITI","","","","",""
"","","","","","visual-search-circle","115","1424434","0.0-14.0-0.0-1.50","5f52b69cd864aa5b51e1fc63","619531dcf66c91622fa1b861","6195a214b03721644d34ff2f","2657","","s","true","[[70,107],[45,458],[372,591],[599,320],[412,21]]","false","5","main_T2_Trial","s","img/Fire_Down_Target.gif","[""img/Fire_Up_Distractor.gif"",""img/Fire_Up_Distractor.gif"",""img/Fire_Up_Distractor.gif"",""img/Fire_Up_Distractor.gif"",""img/Fire_Up_Distractor.gif"",""img/Fire_Up_Distractor.gif"",""img/Fire_Up_Distractor.gif"",""img/Fire_Up_Distractor.gif"",""img/Fire_Up_Distractor.gif"",""img/Fire_Up_Distractor.gif"",""img/Fire_Up_Distractor.gif"",""img/Fire_Up_Distractor.gif""]","5","targetDown_distractorsUp"
"","","","","","html-keyboard-response","116","1424435","0.0-14.0-0.0-0.51","5f52b69cd864aa5b51e1fc63","619531dcf66c91622fa1b861","6195a214b03721644d34ff2f","null","","null","","","","","main_T1_ITI","","","","",""
"","","","","","visual-search-circle","117","1426495","0.0-14.0-0.0-1.51","5f52b69cd864aa5b51e1fc63","619531dcf66c91622fa1b861","6195a214b03721644d34ff2f","1048","","d","true","[[357,5],[5,242],[242,594],[594,357]]","true","4","main_T2_Trial","d","img/Fire_Up_Target.gif","[""img/Fire_Down_Distractor.gif"",""img/Fire_Down_Distractor.gif"",""img/Fire_Down_Distractor.gif"",""img/Fire_Down_Distractor.gif"",""img/Fire_Down_Distractor.gif"",""img/Fire_Down_Distractor.gif"",""img/Fire_Down_Distractor.gif"",""img/Fire_Down_Distractor.gif"",""img/Fire_Down_Distractor.gif"",""img/Fire_Down_Distractor.gif"",""img/Fire_Down_Distractor.gif"",""img/Fire_Down_Distractor.gif""]","4","targetUp_distractorsDown"
"","","","","","html-keyboard-response","118","1426496","0.0-14.0-0.0-0.52","5f52b69cd864aa5b51e1fc63","619531dcf66c91622fa1b861","6195a214b03721644d34ff2f","null","","null","","","","","main_T1_ITI","","","","",""
"","","","","","visual-search-circle","119","1429287","0.0-14.0-0.0-1.52","5f52b69cd864aa5b51e1fc63","619531dcf66c91622fa1b861","6195a214b03721644d34ff2f","1778","","s","true","[[586,387],[472,54],[119,60],[16,397],[305,599]]","false","5","main_T2_Trial","s","img/Fire_Up_Target.gif","[""img/Fire_Down_Distractor.gif"",""img/Fire_Down_Distractor.gif"",""img/Fire_Down_Distractor.gif"",""img/Fire_Down_Distractor.gif"",""img/Fire_Down_Distractor.gif"",""img/Fire_Down_Distractor.gif"",""img/Fire_Down_Distractor.gif"",""img/Fire_Down_Distractor.gif"",""img/Fire_Down_Distractor.gif"",""img/Fire_Down_Distractor.gif"",""img/Fire_Down_Distractor.gif"",""img/Fire_Down_Distractor.gif""]","5","targetUp_distractorsDown"
"","","","","","html-keyboard-response","120","1429288","0.0-14.0-0.0-0.53","5f52b69cd864aa5b51e1fc63","619531dcf66c91622fa1b861","6195a214b03721644d34ff2f","null","","null","","","","","main_T1_ITI","","","","",""
"","","","","","visual-search-circle","121","1431175","0.0-14.0-0.0-1.53","5f52b69cd864aa5b51e1fc63","619531dcf66c91622fa1b861","6195a214b03721644d34ff2f","867","","d","true","[[539,480],[480,60],[60,119],[119,539]]","true","4","main_T2_Trial","d","img/Fire_Down_Target.gif","[""img/Fire_Up_Distractor.gif"",""img/Fire_Up_Distractor.gif"",""img/Fire_Up_Distractor.gif"",""img/Fire_Up_Distractor.gif"",""img/Fire_Up_Distractor.gif"",""img/Fire_Up_Distractor.gif"",""img/Fire_Up_Distractor.gif"",""img/Fire_Up_Distractor.gif"",""img/Fire_Up_Distractor.gif"",""img/Fire_Up_Distractor.gif"",""img/Fire_Up_Distractor.gif"",""img/Fire_Up_Distractor.gif""]","4","targetDown_distractorsUp"
"","","","","","html-keyboard-response","122","1431176","0.0-14.0-0.0-0.54","5f52b69cd864aa5b51e1fc63","619531dcf66c91622fa1b861","6195a214b03721644d34ff2f","null","","null","","","","","main_T1_ITI","","","","",""
"","","","","","visual-search-circle","123","1433606","0.0-14.0-0.0-1.54","5f52b69cd864aa5b51e1fc63","619531dcf66c91622fa1b861","6195a214b03721644d34ff2f","1406","","s","true","[[6,237],[99,522],[392,585],[593,362],[500,77],[207,14]]","false","6","main_T2_Trial","s","img/Fire_Up_Target.gif","[""img/Fire_Down_Distractor.gif"",""img/Fire_Down_Distractor.gif"",""img/Fire_Down_Distractor.gif"",""img/Fire_Down_Distractor.gif"",""img/Fire_Down_Distractor.gif"",""img/Fire_Down_Distractor.gif"",""img/Fire_Down_Distractor.gif"",""img/Fire_Down_Distractor.gif"",""img/Fire_Down_Distractor.gif"",""img/Fire_Down_Distractor.gif"",""img/Fire_Down_Distractor.gif"",""img/Fire_Down_Distractor.gif""]","6","targetUp_distractorsDown"
"","","","","","html-keyboard-response","124","1433606","0.0-14.0-0.0-0.55","5f52b69cd864aa5b51e1fc63","619531dcf66c91622fa1b861","6195a214b03721644d34ff2f","null","","null","","","","","main_T1_ITI","","","","",""
"","","","","","visual-search-circle","125","1438399","0.0-14.0-0.0-1.55","5f52b69cd864aa5b51e1fc63","619531dcf66c91622fa1b861","6195a214b03721644d34ff2f","3782","","s","true","[[247,595],[595,352],[352,4],[4,247]]","false","4","main_T2_Trial","s","img/Fire_Up_Target.gif","[""img/Fire_Down_Distractor.gif"",""img/Fire_Down_Distractor.gif"",""img/Fire_Down_Distractor.gif"",""img/Fire_Down_Distractor.gif"",""img/Fire_Down_Distractor.gif"",""img/Fire_Down_Distractor.gif"",""img/Fire_Down_Distractor.gif"",""img/Fire_Down_Distractor.gif"",""img/Fire_Down_Distractor.gif"",""img/Fire_Down_Distractor.gif"",""img/Fire_Down_Distractor.gif"",""img/Fire_Down_Distractor.gif""]","4","targetUp_distractorsDown"
"","","","","","html-keyboard-response","126","1438400","0.0-14.0-0.0-0.56","5f52b69cd864aa5b51e1fc63","619531dcf66c91622fa1b861","6195a214b03721644d34ff2f","null","","null","","","","","main_T1_ITI","","","","",""
"","","","","","visual-search-circle","127","1440701","0.0-14.0-0.0-1.56","5f52b69cd864aa5b51e1fc63","619531dcf66c91622fa1b861","6195a214b03721644d34ff2f","1281","","s","true","[[7,232],[95,519],[387,586],[592,367],[504,80],[212,13]]","false","6","main_T2_Trial","s","img/Fire_Down_Target.gif","[""img/Fire_Up_Distractor.gif"",""img/Fire_Up_Distractor.gif"",""img/Fire_Up_Distractor.gif"",""img/Fire_Up_Distractor.gif"",""img/Fire_Up_Distractor.gif"",""img/Fire_Up_Distractor.gif"",""img/Fire_Up_Distractor.gif"",""img/Fire_Up_Distractor.gif"",""img/Fire_Up_Distractor.gif"",""img/Fire_Up_Distractor.gif"",""img/Fire_Up_Distractor.gif"",""img/Fire_Up_Distractor.gif""]","6","targetDown_distractorsUp"
"","","","","","html-keyboard-response","128","1440702","0.0-14.0-0.0-0.57","5f52b69cd864aa5b51e1fc63","619531dcf66c91622fa1b861","6195a214b03721644d34ff2f","null","","null","","","","","main_T1_ITI","","","","",""
"","","","","","visual-search-circle","129","1442535","0.0-14.0-0.0-1.57","5f52b69cd864aa5b51e1fc63","619531dcf66c91622fa1b861","6195a214b03721644d34ff2f","827","","d","true","[[6,237],[149,559],[500,522],[574,177],[268,1]]","true","5","main_T2_Trial","d","img/Fire_Up_Target.gif","[""img/Fire_Down_Distractor.gif"",""img/Fire_Down_Distractor.gif"",""img/Fire_Down_Distractor.gif"",""img/Fire_Down_Distractor.gif"",""img/Fire_Down_Distractor.gif"",""img/Fire_Down_Distractor.gif"",""img/Fire_Down_Distractor.gif"",""img/Fire_Down_Distractor.gif"",""img/Fire_Down_Distractor.gif"",""img/Fire_Down_Distractor.gif"",""img/Fire_Down_Distractor.gif"",""img/Fire_Down_Distractor.gif""]","5","targetUp_distractorsDown"
"","","","","","html-keyboard-response","130","1442536","0.0-14.0-0.0-0.58","5f52b69cd864aa5b51e1fc63","619531dcf66c91622fa1b861","6195a214b03721644d34ff2f","null","","null","","","","","main_T1_ITI","","","","",""
"","","","","","visual-search-circle","131","1444816","0.0-14.0-0.0-1.58","5f52b69cd864aa5b51e1fc63","619531dcf66c91622fa1b861","6195a214b03721644d34ff2f","1269","","d","true","[[599,294],[387,13],[54,127],[60,480],[397,583]]","true","5","main_T2_Trial","d","img/Fire_Up_Target.gif","[""img/Fire_Down_Distractor.gif"",""img/Fire_Down_Distractor.gif"",""img/Fire_Down_Distractor.gif"",""img/Fire_Down_Distractor.gif"",""img/Fire_Down_Distractor.gif"",""img/Fire_Down_Distractor.gif"",""img/Fire_Down_Distractor.gif"",""img/Fire_Down_Distractor.gif"",""img/Fire_Down_Distractor.gif"",""img/Fire_Down_Distractor.gif"",""img/Fire_Down_Distractor.gif"",""img/Fire_Down_Distractor.gif""]","5","targetUp_distractorsDown"
"","","","","","html-keyboard-response","132","1446260","0.0-14.0-0.0-0.59","5f52b69cd864aa5b51e1fc63","619531dcf66c91622fa1b861","6195a214b03721644d34ff2f","1444","Wow! You've completed 60 out of 160 trials! </p> <p>  </p><p> Take a quick break, then press any key when you're ready to continue."," ","","","","","main_T1_ITI","","","","",""
"","","","","","visual-search-circle","133","1448493","0.0-14.0-0.0-1.59","5f52b69cd864aa5b51e1fc63","619531dcf66c91622fa1b861","6195a214b03721644d34ff2f","1214","","s","true","[[569,168],[365,7],[111,66],[0,301],[114,535],[368,592],[570,428]]","false","7","main_T2_Trial","s","img/Fire_Down_Target.gif","[""img/Fire_Up_Distractor.gif"",""img/Fire_Up_Distractor.gif"",""img/Fire_Up_Distractor.gif"",""img/Fire_Up_Distractor.gif"",""img/Fire_Up_Distractor.gif"",""img/Fire_Up_Distractor.gif"",""img/Fire_Up_Distractor.gif"",""img/Fire_Up_Distractor.gif"",""img/Fire_Up_Distractor.gif"",""img/Fire_Up_Distractor.gif"",""img/Fire_Up_Distractor.gif"",""img/Fire_Up_Distractor.gif""]","7","targetDown_distractorsUp"
"","","","","","html-keyboard-response","134","1448494","0.0-14.0-0.0-0.60","5f52b69cd864aa5b51e1fc63","619531dcf66c91622fa1b861","6195a214b03721644d34ff2f","null","","null","","","","","main_T1_ITI","","","","",""
"","","","","","visual-search-circle","135","1450322","0.0-14.0-0.0-1.60","5f52b69cd864aa5b51e1fc63","619531dcf66c91622fa1b861","6195a214b03721644d34ff2f","823","","d","true","[[581,197],[197,18],[18,402],[402,581]]","true","4","main_T2_Trial","d","img/Fire_Down_Target.gif","[""img/Fire_Up_Distractor.gif"",""img/Fire_Up_Distractor.gif"",""img/Fire_Up_Distractor.gif"",""img/Fire_Up_Distractor.gif"",""img/Fire_Up_Distractor.gif"",""img/Fire_Up_Distractor.gif"",""img/Fire_Up_Distractor.gif"",""img/Fire_Up_Distractor.gif"",""img/Fire_Up_Distractor.gif"",""img/Fire_Up_Distractor.gif"",""img/Fire_Up_Distractor.gif"",""img/Fire_Up_Distractor.gif""]","4","targetDown_distractorsUp"
"","","","","","html-keyboard-response","136","1450322","0.0-14.0-0.0-0.61","5f52b69cd864aa5b51e1fc63","619531dcf66c91622fa1b861","6195a214b03721644d34ff2f","null","","null","","","","","main_T1_ITI","","","","",""
"","","","","","visual-search-circle","137","1453291","0.0-14.0-0.0-1.61","5f52b69cd864aa5b51e1fc63","619531dcf66c91622fa1b861","6195a214b03721644d34ff2f","1952","","d","true","[[326,1],[23,182],[103,526],[454,557],[592,232]]","true","5","main_T2_Trial","d","img/Fire_Up_Target.gif","[""img/Fire_Down_Distractor.gif"",""img/Fire_Down_Distractor.gif"",""img/Fire_Down_Distractor.gif"",""img/Fire_Down_Distractor.gif"",""img/Fire_Down_Distractor.gif"",""img/Fire_Down_Distractor.gif"",""img/Fire_Down_Distractor.gif"",""img/Fire_Down_Distractor.gif"",""img/Fire_Down_Distractor.gif"",""img/Fire_Down_Distractor.gif"",""img/Fire_Down_Distractor.gif"",""img/Fire_Down_Distractor.gif""]","5","targetUp_distractorsDown"
"","","","","","html-keyboard-response","138","1453292","0.0-14.0-0.0-0.62","5f52b69cd864aa5b51e1fc63","619531dcf66c91622fa1b861","6195a214b03721644d34ff2f","null","","null","","","","","main_T1_ITI","","","","",""
"","","","","","visual-search-circle","139","1459526","0.0-14.0-0.0-1.62","5f52b69cd864aa5b51e1fc63","619531dcf66c91622fa1b861","6195a214b03721644d34ff2f","5216","","d","true","[[163,32],[14,207],[32,436],[207,585],[436,567],[585,392],[567,163],[392,14]]","true","8","main_T2_Trial","d","img/Fire_Down_Target.gif","[""img/Fire_Up_Distractor.gif"",""img/Fire_Up_Distractor.gif"",""img/Fire_Up_Distractor.gif"",""img/Fire_Up_Distractor.gif"",""img/Fire_Up_Distractor.gif"",""img/Fire_Up_Distractor.gif"",""img/Fire_Up_Distractor.gif"",""img/Fire_Up_Distractor.gif"",""img/Fire_Up_Distractor.gif"",""img/Fire_Up_Distractor.gif"",""img/Fire_Up_Distractor.gif"",""img/Fire_Up_Distractor.gif""]","8","targetDown_distractorsUp"
"","","","","","html-keyboard-response","140","1459527","0.0-14.0-0.0-0.63","5f52b69cd864aa5b51e1fc63","619531dcf66c91622fa1b861","6195a214b03721644d34ff2f","null","","null","","","","","main_T1_ITI","","","","",""
"","","","","","visual-search-circle","141","1462821","0.0-14.0-0.0-1.63","5f52b69cd864aa5b51e1fc63","619531dcf66c91622fa1b861","6195a214b03721644d34ff2f","2271","","d","true","[[445,37],[185,22],[11,216],[55,473],[282,599],[523,500],[595,250]]","true","7","main_T2_Trial","d","img/Fire_Up_Target.gif","[""img/Fire_Down_Distractor.gif"",""img/Fire_Down_Distractor.gif"",""img/Fire_Down_Distractor.gif"",""img/Fire_Down_Distractor.gif"",""img/Fire_Down_Distractor.gif"",""img/Fire_Down_Distractor.gif"",""img/Fire_Down_Distractor.gif"",""img/Fire_Down_Distractor.gif"",""img/Fire_Down_Distractor.gif"",""img/Fire_Down_Distractor.gif"",""img/Fire_Down_Distractor.gif"",""img/Fire_Down_Distractor.gif""]","7","targetUp_distractorsDown"
"","","","","","html-keyboard-response","142","1462822","0.0-14.0-0.0-0.64","5f52b69cd864aa5b51e1fc63","619531dcf66c91622fa1b861","6195a214b03721644d34ff2f","null","","null","","","","","main_T1_ITI","","","","",""
"","","","","","visual-search-circle","143","1464676","0.0-14.0-0.0-1.64","5f52b69cd864aa5b51e1fc63","619531dcf66c91622fa1b861","6195a214b03721644d34ff2f","837","","s","true","[[247,595],[472,545],[595,352],[545,127],[352,4],[127,54],[4,247],[54,472]]","false","8","main_T2_Trial","s","img/Fire_Up_Target.gif","[""img/Fire_Down_Distractor.gif"",""img/Fire_Down_Distractor.gif"",""img/Fire_Down_Distractor.gif"",""img/Fire_Down_Distractor.gif"",""img/Fire_Down_Distractor.gif"",""img/Fire_Down_Distractor.gif"",""img/Fire_Down_Distractor.gif"",""img/Fire_Down_Distractor.gif"",""img/Fire_Down_Distractor.gif"",""img/Fire_Down_Distractor.gif"",""img/Fire_Down_Distractor.gif"",""img/Fire_Down_Distractor.gif""]","8","targetUp_distractorsDown"
"","","","","","html-keyboard-response","144","1464676","0.0-14.0-0.0-0.65","5f52b69cd864aa5b51e1fc63","619531dcf66c91622fa1b861","6195a214b03721644d34ff2f","null","","null","","","","","main_T1_ITI","","","","",""
"","","","","","visual-search-circle","145","1466808","0.0-14.0-0.0-1.65","5f52b69cd864aa5b51e1fc63","619531dcf66c91622fa1b861","6195a214b03721644d34ff2f","1111","","s","true","[[3,346],[346,596],[596,253],[253,3]]","false","4","main_T2_Trial","s","img/Fire_Up_Target.gif","[""img/Fire_Down_Distractor.gif"",""img/Fire_Down_Distractor.gif"",""img/Fire_Down_Distractor.gif"",""img/Fire_Down_Distractor.gif"",""img/Fire_Down_Distractor.gif"",""img/Fire_Down_Distractor.gif"",""img/Fire_Down_Distractor.gif"",""img/Fire_Down_Distractor.gif"",""img/Fire_Down_Distractor.gif"",""img/Fire_Down_Distractor.gif"",""img/Fire_Down_Distractor.gif"",""img/Fire_Down_Distractor.gif""]","4","targetUp_distractorsDown"
"","","","","","html-keyboard-response","146","1466809","0.0-14.0-0.0-0.66","5f52b69cd864aa5b51e1fc63","619531dcf66c91622fa1b861","6195a214b03721644d34ff2f","null","","null","","","","","main_T1_ITI","","","","",""
"","","","","","visual-search-circle","147","1469211","0.0-14.0-0.0-1.66","5f52b69cd864aa5b51e1fc63","619531dcf66c91622fa1b861","6195a214b03721644d34ff2f","1395","","d","true","[[99,77],[77,500],[500,522],[522,99]]","true","4","main_T2_Trial","d","img/Fire_Down_Target.gif","[""img/Fire_Up_Distractor.gif"",""img/Fire_Up_Distractor.gif"",""img/Fire_Up_Distractor.gif"",""img/Fire_Up_Distractor.gif"",""img/Fire_Up_Distractor.gif"",""img/Fire_Up_Distractor.gif"",""img/Fire_Up_Distractor.gif"",""img/Fire_Up_Distractor.gif"",""img/Fire_Up_Distractor.gif"",""img/Fire_Up_Distractor.gif"",""img/Fire_Up_Distractor.gif"",""img/Fire_Up_Distractor.gif""]","4","targetDown_distractorsUp"
"","","","","","html-keyboard-response","148","1469211","0.0-14.0-0.0-0.67","5f52b69cd864aa5b51e1fc63","619531dcf66c91622fa1b861","6195a214b03721644d34ff2f","null","","null","","","","","main_T1_ITI","","","","",""
"","","","","","visual-search-circle","149","1471709","0.0-14.0-0.0-1.67","5f52b69cd864aa5b51e1fc63","619531dcf66c91622fa1b861","6195a214b03721644d34ff2f","1481","","s","true","[[598,326],[417,23],[73,103],[42,454],[367,592]]","false","5","main_T2_Trial","s","img/Fire_Down_Target.gif","[""img/Fire_Up_Distractor.gif"",""img/Fire_Up_Distractor.gif"",""img/Fire_Up_Distractor.gif"",""img/Fire_Up_Distractor.gif"",""img/Fire_Up_Distractor.gif"",""img/Fire_Up_Distractor.gif"",""img/Fire_Up_Distractor.gif"",""img/Fire_Up_Distractor.gif"",""img/Fire_Up_Distractor.gif"",""img/Fire_Up_Distractor.gif"",""img/Fire_Up_Distractor.gif"",""img/Fire_Up_Distractor.gif""]","5","targetDown_distractorsUp"
"","","","","","html-keyboard-response","150","1471709","0.0-14.0-0.0-0.68","5f52b69cd864aa5b51e1fc63","619531dcf66c91622fa1b861","6195a214b03721644d34ff2f","null","","null","","","","","main_T1_ITI","","","","",""
"","","","","","visual-search-circle","151","1474489","0.0-14.0-0.0-1.68","5f52b69cd864aa5b51e1fc63","619531dcf66c91622fa1b861","6195a214b03721644d34ff2f","1770","","s","true","[[522,500],[500,77],[77,99],[99,522]]","false","4","main_T2_Trial","s","img/Fire_Down_Target.gif","[""img/Fire_Up_Distractor.gif"",""img/Fire_Up_Distractor.gif"",""img/Fire_Up_Distractor.gif"",""img/Fire_Up_Distractor.gif"",""img/Fire_Up_Distractor.gif"",""img/Fire_Up_Distractor.gif"",""img/Fire_Up_Distractor.gif"",""img/Fire_Up_Distractor.gif"",""img/Fire_Up_Distractor.gif"",""img/Fire_Up_Distractor.gif"",""img/Fire_Up_Distractor.gif"",""img/Fire_Up_Distractor.gif""]","4","targetDown_distractorsUp"
"","","","","","html-keyboard-response","152","1474489","0.0-14.0-0.0-0.69","5f52b69cd864aa5b51e1fc63","619531dcf66c91622fa1b861","6195a214b03721644d34ff2f","null","","null","","","","","main_T1_ITI","","","","",""
"","","","","","visual-search-circle","153","1478201","0.0-14.0-0.0-1.69","5f52b69cd864aa5b51e1fc63","619531dcf66c91622fa1b861","6195a214b03721644d34ff2f","2706","","s","true","[[472,545],[586,212],[305,0],[16,202],[119,539]]","false","5","main_T2_Trial","s","img/Fire_Down_Target.gif","[""img/Fire_Up_Distractor.gif"",""img/Fire_Up_Distractor.gif"",""img/Fire_Up_Distractor.gif"",""img/Fire_Up_Distractor.gif"",""img/Fire_Up_Distractor.gif"",""img/Fire_Up_Distractor.gif"",""img/Fire_Up_Distractor.gif"",""img/Fire_Up_Distractor.gif"",""img/Fire_Up_Distractor.gif"",""img/Fire_Up_Distractor.gif"",""img/Fire_Up_Distractor.gif"",""img/Fire_Up_Distractor.gif""]","5","targetDown_distractorsUp"
"","","","","","html-keyboard-response","154","1478202","0.0-14.0-0.0-0.70","5f52b69cd864aa5b51e1fc63","619531dcf66c91622fa1b861","6195a214b03721644d34ff2f","null","","null","","","","","main_T1_ITI","","","","",""
"","","","","","visual-search-circle","155","1479989","0.0-14.0-0.0-1.70","5f52b69cd864aa5b51e1fc63","619531dcf66c91622fa1b861","6195a214b03721644d34ff2f","772","","s","true","[[336,597],[576,417],[539,119],[263,2],[23,182],[60,480]]","false","6","main_T2_Trial","s","img/Fire_Up_Target.gif","[""img/Fire_Down_Distractor.gif"",""img/Fire_Down_Distractor.gif"",""img/Fire_Down_Distractor.gif"",""img/Fire_Down_Distractor.gif"",""img/Fire_Down_Distractor.gif"",""img/Fire_Down_Distractor.gif"",""img/Fire_Down_Distractor.gif"",""img/Fire_Down_Distractor.gif"",""img/Fire_Down_Distractor.gif"",""img/Fire_Down_Distractor.gif"",""img/Fire_Down_Distractor.gif"",""img/Fire_Down_Distractor.gif""]","6","targetUp_distractorsDown"
"","","","","","html-keyboard-response","156","1479989","0.0-14.0-0.0-0.71","5f52b69cd864aa5b51e1fc63","619531dcf66c91622fa1b861","6195a214b03721644d34ff2f","null","","null","","","","","main_T1_ITI","","","","",""
"","","","","","visual-search-circle","157","1483594","0.0-14.0-0.0-1.71","5f52b69cd864aa5b51e1fc63","619531dcf66c91622fa1b861","6195a214b03721644d34ff2f","2596","","s","true","[[5,357],[263,597],[571,426],[504,80],[154,37]]","false","5","main_T2_Trial","s","img/Fire_Down_Target.gif","[""img/Fire_Up_Distractor.gif"",""img/Fire_Up_Distractor.gif"",""img/Fire_Up_Distractor.gif"",""img/Fire_Up_Distractor.gif"",""img/Fire_Up_Distractor.gif"",""img/Fire_Up_Distractor.gif"",""img/Fire_Up_Distractor.gif"",""img/Fire_Up_Distractor.gif"",""img/Fire_Up_Distractor.gif"",""img/Fire_Up_Distractor.gif"",""img/Fire_Up_Distractor.gif"",""img/Fire_Up_Distractor.gif""]","5","targetDown_distractorsUp"
"","","","","","html-keyboard-response","158","1483596","0.0-14.0-0.0-0.72","5f52b69cd864aa5b51e1fc63","619531dcf66c91622fa1b861","6195a214b03721644d34ff2f","null","","null","","","","","main_T1_ITI","","","","",""
"","","","","","visual-search-circle","159","1486296","0.0-14.0-0.0-1.72","5f52b69cd864aa5b51e1fc63","619531dcf66c91622fa1b861","6195a214b03721644d34ff2f","1698","","d","true","[[574,422],[500,77],[150,40],[6,362],[268,598]]","true","5","main_T2_Trial","d","img/Fire_Up_Target.gif","[""img/Fire_Down_Distractor.gif"",""img/Fire_Down_Distractor.gif"",""img/Fire_Down_Distractor.gif"",""img/Fire_Down_Distractor.gif"",""img/Fire_Down_Distractor.gif"",""img/Fire_Down_Distractor.gif"",""img/Fire_Down_Distractor.gif"",""img/Fire_Down_Distractor.gif"",""img/Fire_Down_Distractor.gif"",""img/Fire_Down_Distractor.gif"",""img/Fire_Down_Distractor.gif"",""img/Fire_Down_Distractor.gif""]","5","targetUp_distractorsDown"
"","","","","","html-keyboard-response","160","1486297","0.0-14.0-0.0-0.73","5f52b69cd864aa5b51e1fc63","619531dcf66c91622fa1b861","6195a214b03721644d34ff2f","null","","null","","","","","main_T1_ITI","","","","",""
"","","","","","visual-search-circle","161","1489805","0.0-14.0-0.0-1.73","5f52b69cd864aa5b51e1fc63","619531dcf66c91622fa1b861","6195a214b03721644d34ff2f","2486","","s","true","[[77,99],[14,392],[237,593],[522,500],[585,207],[362,6]]","false","6","main_T2_Trial","s","img/Fire_Up_Target.gif","[""img/Fire_Down_Distractor.gif"",""img/Fire_Down_Distractor.gif"",""img/Fire_Down_Distractor.gif"",""img/Fire_Down_Distractor.gif"",""img/Fire_Down_Distractor.gif"",""img/Fire_Down_Distractor.gif"",""img/Fire_Down_Distractor.gif"",""img/Fire_Down_Distractor.gif"",""img/Fire_Down_Distractor.gif"",""img/Fire_Down_Distractor.gif"",""img/Fire_Down_Distractor.gif"",""img/Fire_Down_Distractor.gif""]","6","targetUp_distractorsDown"
"","","","","","html-keyboard-response","162","1489805","0.0-14.0-0.0-0.74","5f52b69cd864aa5b51e1fc63","619531dcf66c91622fa1b861","6195a214b03721644d34ff2f","null","","null","","","","","main_T1_ITI","","","","",""
"","","","","","visual-search-circle","163","1491939","0.0-14.0-0.0-1.74","5f52b69cd864aa5b51e1fc63","619531dcf66c91622fa1b861","6195a214b03721644d34ff2f","1131","","s","true","[[357,594],[597,336],[426,28],[80,95],[37,445]]","false","5","main_T2_Trial","s","img/Fire_Up_Target.gif","[""img/Fire_Down_Distractor.gif"",""img/Fire_Down_Distractor.gif"",""img/Fire_Down_Distractor.gif"",""img/Fire_Down_Distractor.gif"",""img/Fire_Down_Distractor.gif"",""img/Fire_Down_Distractor.gif"",""img/Fire_Down_Distractor.gif"",""img/Fire_Down_Distractor.gif"",""img/Fire_Down_Distractor.gif"",""img/Fire_Down_Distractor.gif"",""img/Fire_Down_Distractor.gif"",""img/Fire_Down_Distractor.gif""]","5","targetUp_distractorsDown"
"","","","","","html-keyboard-response","164","1491939","0.0-14.0-0.0-0.75","5f52b69cd864aa5b51e1fc63","619531dcf66c91622fa1b861","6195a214b03721644d34ff2f","null","","null","","","","","main_T1_ITI","","","","",""
"","","","","","visual-search-circle","165","1493933","0.0-14.0-0.0-1.75","5f52b69cd864aa5b51e1fc63","619531dcf66c91622fa1b861","6195a214b03721644d34ff2f","975","","s","true","[[16,397],[242,594],[526,496],[583,202],[357,5],[73,103]]","false","6","main_T2_Trial","s","img/Fire_Down_Target.gif","[""img/Fire_Up_Distractor.gif"",""img/Fire_Up_Distractor.gif"",""img/Fire_Up_Distractor.gif"",""img/Fire_Up_Distractor.gif"",""img/Fire_Up_Distractor.gif"",""img/Fire_Up_Distractor.gif"",""img/Fire_Up_Distractor.gif"",""img/Fire_Up_Distractor.gif"",""img/Fire_Up_Distractor.gif"",""img/Fire_Up_Distractor.gif"",""img/Fire_Up_Distractor.gif"",""img/Fire_Up_Distractor.gif""]","6","targetDown_distractorsUp"
"","","","","","html-keyboard-response","166","1493934","0.0-14.0-0.0-0.76","5f52b69cd864aa5b51e1fc63","619531dcf66c91622fa1b861","6195a214b03721644d34ff2f","null","","null","","","","","main_T1_ITI","","","","",""
"","","","","","visual-search-circle","167","1496979","0.0-14.0-0.0-1.76","5f52b69cd864aa5b51e1fc63","619531dcf66c91622fa1b861","6195a214b03721644d34ff2f","2039","","s","true","[[597,263],[457,44],[198,17],[15,203],[47,462],[269,598],[514,510]]","false","7","main_T2_Trial","s","img/Fire_Down_Target.gif","[""img/Fire_Up_Distractor.gif"",""img/Fire_Up_Distractor.gif"",""img/Fire_Up_Distractor.gif"",""img/Fire_Up_Distractor.gif"",""img/Fire_Up_Distractor.gif"",""img/Fire_Up_Distractor.gif"",""img/Fire_Up_Distractor.gif"",""img/Fire_Up_Distractor.gif"",""img/Fire_Up_Distractor.gif"",""img/Fire_Up_Distractor.gif"",""img/Fire_Up_Distractor.gif"",""img/Fire_Up_Distractor.gif""]","7","targetDown_distractorsUp"
"","","","","","html-keyboard-response","168","1496979","0.0-14.0-0.0-0.77","5f52b69cd864aa5b51e1fc63","619531dcf66c91622fa1b861","6195a214b03721644d34ff2f","null","","null","","","","","main_T1_ITI","","","","",""
"","","","","","visual-search-circle","169","1500511","0.0-14.0-0.0-1.77","5f52b69cd864aa5b51e1fc63","619531dcf66c91622fa1b861","6195a214b03721644d34ff2f","2511","","d","true","[[123,542],[379,589],[575,417],[564,157],[353,4],[102,74],[0,313]]","true","7","main_T2_Trial","d","img/Fire_Down_Target.gif","[""img/Fire_Up_Distractor.gif"",""img/Fire_Up_Distractor.gif"",""img/Fire_Up_Distractor.gif"",""img/Fire_Up_Distractor.gif"",""img/Fire_Up_Distractor.gif"",""img/Fire_Up_Distractor.gif"",""img/Fire_Up_Distractor.gif"",""img/Fire_Up_Distractor.gif"",""img/Fire_Up_Distractor.gif"",""img/Fire_Up_Distractor.gif"",""img/Fire_Up_Distractor.gif"",""img/Fire_Up_Distractor.gif""]","7","targetDown_distractorsUp"
"","","","","","html-keyboard-response","170","1500511","0.0-14.0-0.0-0.78","5f52b69cd864aa5b51e1fc63","619531dcf66c91622fa1b861","6195a214b03721644d34ff2f","null","","null","","","","","main_T1_ITI","","","","",""
"","","","","","visual-search-circle","171","1502663","0.0-14.0-0.0-1.78","5f52b69cd864aa5b51e1fc63","619531dcf66c91622fa1b861","6195a214b03721644d34ff2f","1144","","d","true","[[569,431],[508,84],[159,35],[4,352],[258,597]]","true","5","main_T2_Trial","d","img/Fire_Up_Target.gif","[""img/Fire_Down_Distractor.gif"",""img/Fire_Down_Distractor.gif"",""img/Fire_Down_Distractor.gif"",""img/Fire_Down_Distractor.gif"",""img/Fire_Down_Distractor.gif"",""img/Fire_Down_Distractor.gif"",""img/Fire_Down_Distractor.gif"",""img/Fire_Down_Distractor.gif"",""img/Fire_Down_Distractor.gif"",""img/Fire_Down_Distractor.gif"",""img/Fire_Down_Distractor.gif"",""img/Fire_Down_Distractor.gif""]","5","targetUp_distractorsDown"
"","","","","","html-keyboard-response","172","1504020","0.0-14.0-0.0-0.79","5f52b69cd864aa5b51e1fc63","619531dcf66c91622fa1b861","6195a214b03721644d34ff2f","1356","Wow! You've completed 80 out of 160 trials! </p> <p>  </p><p> Take a quick break, then press any key when you're ready to continue."," ","","","","","main_T1_ITI","","","","",""
"","","","","","visual-search-circle","173","1505863","0.0-14.0-0.0-1.79","5f52b69cd864aa5b51e1fc63","619531dcf66c91622fa1b861","6195a214b03721644d34ff2f","823","","s","true","[[173,28],[18,197],[28,426],[197,581],[426,571],[581,402],[571,173],[402,18]]","false","8","main_T2_Trial","s","img/Fire_Down_Target.gif","[""img/Fire_Up_Distractor.gif"",""img/Fire_Up_Distractor.gif"",""img/Fire_Up_Distractor.gif"",""img/Fire_Up_Distractor.gif"",""img/Fire_Up_Distractor.gif"",""img/Fire_Up_Distractor.gif"",""img/Fire_Up_Distractor.gif"",""img/Fire_Up_Distractor.gif"",""img/Fire_Up_Distractor.gif"",""img/Fire_Up_Distractor.gif"",""img/Fire_Up_Distractor.gif"",""img/Fire_Up_Distractor.gif""]","8","targetDown_distractorsUp"
"","","","","","html-keyboard-response","174","1505863","0.0-14.0-0.0-0.80","5f52b69cd864aa5b51e1fc63","619531dcf66c91622fa1b861","6195a214b03721644d34ff2f","null","","null","","","","","main_T1_ITI","","","","",""
"","","","","","visual-search-circle","175","1508039","0.0-14.0-0.0-1.80","5f52b69cd864aa5b51e1fc63","619531dcf66c91622fa1b861","6195a214b03721644d34ff2f","1169","","d","true","[[51,132],[5,357],[132,548],[357,594],[548,467],[594,242],[467,51],[242,5]]","true","8","main_T2_Trial","d","img/Fire_Up_Target.gif","[""img/Fire_Down_Distractor.gif"",""img/Fire_Down_Distractor.gif"",""img/Fire_Down_Distractor.gif"",""img/Fire_Down_Distractor.gif"",""img/Fire_Down_Distractor.gif"",""img/Fire_Down_Distractor.gif"",""img/Fire_Down_Distractor.gif"",""img/Fire_Down_Distractor.gif"",""img/Fire_Down_Distractor.gif"",""img/Fire_Down_Distractor.gif"",""img/Fire_Down_Distractor.gif"",""img/Fire_Down_Distractor.gif""]","8","targetUp_distractorsDown"
"","","","","","html-keyboard-response","176","1508039","0.0-14.0-0.0-0.81","5f52b69cd864aa5b51e1fc63","619531dcf66c91622fa1b861","6195a214b03721644d34ff2f","null","","null","","","","","main_T1_ITI","","","","",""
"","","","","","visual-search-circle","177","1510875","0.0-14.0-0.0-1.81","5f52b69cd864aa5b51e1fc63","619531dcf66c91622fa1b861","6195a214b03721644d34ff2f","1827","","d","true","[[132,51],[0,276],[94,518],[343,596],[559,451],[579,191],[389,13]]","true","7","main_T2_Trial","d","img/Fire_Down_Target.gif","[""img/Fire_Up_Distractor.gif"",""img/Fire_Up_Distractor.gif"",""img/Fire_Up_Distractor.gif"",""img/Fire_Up_Distractor.gif"",""img/Fire_Up_Distractor.gif"",""img/Fire_Up_Distractor.gif"",""img/Fire_Up_Distractor.gif"",""img/Fire_Up_Distractor.gif"",""img/Fire_Up_Distractor.gif"",""img/Fire_Up_Distractor.gif"",""img/Fire_Up_Distractor.gif"",""img/Fire_Up_Distractor.gif""]","7","targetDown_distractorsUp"
"","","","","","html-keyboard-response","178","1510876","0.0-14.0-0.0-0.82","5f52b69cd864aa5b51e1fc63","619531dcf66c91622fa1b861","6195a214b03721644d34ff2f","null","","null","","","","","main_T1_ITI","","","","",""
"","","","","","visual-search-circle","179","1512694","0.0-14.0-0.0-1.82","5f52b69cd864aa5b51e1fc63","619531dcf66c91622fa1b861","6195a214b03721644d34ff2f","795","","s","true","[[341,597],[558,452],[580,193],[391,14],[133,50],[1,274],[93,517]]","false","7","main_T2_Trial","s","img/Fire_Up_Target.gif","[""img/Fire_Down_Distractor.gif"",""img/Fire_Down_Distractor.gif"",""img/Fire_Down_Distractor.gif"",""img/Fire_Down_Distractor.gif"",""img/Fire_Down_Distractor.gif"",""img/Fire_Down_Distractor.gif"",""img/Fire_Down_Distractor.gif"",""img/Fire_Down_Distractor.gif"",""img/Fire_Down_Distractor.gif"",""img/Fire_Down_Distractor.gif"",""img/Fire_Down_Distractor.gif"",""img/Fire_Down_Distractor.gif""]","7","targetUp_distractorsDown"
"","","","","","html-keyboard-response","180","1512694","0.0-14.0-0.0-0.83","5f52b69cd864aa5b51e1fc63","619531dcf66c91622fa1b861","6195a214b03721644d34ff2f","null","","null","","","","","main_T1_ITI","","","","",""
"","","","","","visual-search-circle","181","1514399","0.0-14.0-0.0-1.83","5f52b69cd864aa5b51e1fc63","619531dcf66c91622fa1b861","6195a214b03721644d34ff2f","700","","s","true","[[107,70],[0,307],[118,539],[374,590],[573,423],[566,163],[359,5]]","false","7","main_T2_Trial","s","img/Fire_Up_Target.gif","[""img/Fire_Down_Distractor.gif"",""img/Fire_Down_Distractor.gif"",""img/Fire_Down_Distractor.gif"",""img/Fire_Down_Distractor.gif"",""img/Fire_Down_Distractor.gif"",""img/Fire_Down_Distractor.gif"",""img/Fire_Down_Distractor.gif"",""img/Fire_Down_Distractor.gif"",""img/Fire_Down_Distractor.gif"",""img/Fire_Down_Distractor.gif"",""img/Fire_Down_Distractor.gif"",""img/Fire_Down_Distractor.gif""]","7","targetUp_distractorsDown"
"","","","","","html-keyboard-response","182","1514400","0.0-14.0-0.0-0.84","5f52b69cd864aa5b51e1fc63","619531dcf66c91622fa1b861","6195a214b03721644d34ff2f","null","","null","","","","","main_T1_ITI","","","","",""
"","","","","","visual-search-circle","183","1515903","0.0-14.0-0.0-1.84","5f52b69cd864aa5b51e1fc63","619531dcf66c91622fa1b861","6195a214b03721644d34ff2f","487","","s","false","[[310,599],[540,478],[589,223],[420,25],[160,34],[5,243],[72,495]]","true","7","main_T2_Trial","d","img/Fire_Down_Target.gif","[""img/Fire_Up_Distractor.gif"",""img/Fire_Up_Distractor.gif"",""img/Fire_Up_Distractor.gif"",""img/Fire_Up_Distractor.gif"",""img/Fire_Up_Distractor.gif"",""img/Fire_Up_Distractor.gif"",""img/Fire_Up_Distractor.gif"",""img/Fire_Up_Distractor.gif"",""img/Fire_Up_Distractor.gif"",""img/Fire_Up_Distractor.gif"",""img/Fire_Up_Distractor.gif"",""img/Fire_Up_Distractor.gif""]","7","targetDown_distractorsUp"
"","","","","","html-keyboard-response","184","1515904","0.0-14.0-0.0-0.85","5f52b69cd864aa5b51e1fc63","619531dcf66c91622fa1b861","6195a214b03721644d34ff2f","null","","null","","","","","main_T1_ITI","","","","",""
"","","","","","visual-search-circle","185","1517798","0.0-14.0-0.0-1.85","5f52b69cd864aa5b51e1fc63","619531dcf66c91622fa1b861","6195a214b03721644d34ff2f","881","","d","true","[[310,0],[45,141],[35,440],[289,599],[554,458],[564,159]]","true","6","main_T2_Trial","d","img/Fire_Up_Target.gif","[""img/Fire_Down_Distractor.gif"",""img/Fire_Down_Distractor.gif"",""img/Fire_Down_Distractor.gif"",""img/Fire_Down_Distractor.gif"",""img/Fire_Down_Distractor.gif"",""img/Fire_Down_Distractor.gif"",""img/Fire_Down_Distractor.gif"",""img/Fire_Down_Distractor.gif"",""img/Fire_Down_Distractor.gif"",""img/Fire_Down_Distractor.gif"",""img/Fire_Down_Distractor.gif"",""img/Fire_Down_Distractor.gif""]","6","targetUp_distractorsDown"
"","","","","","html-keyboard-response","186","1517798","0.0-14.0-0.0-0.86","5f52b69cd864aa5b51e1fc63","619531dcf66c91622fa1b861","6195a214b03721644d34ff2f","null","","null","","","","","main_T1_ITI","","","","",""
"","","","","","visual-search-circle","187","1519831","0.0-14.0-0.0-1.86","5f52b69cd864aa5b51e1fc63","619531dcf66c91622fa1b861","6195a214b03721644d34ff2f","1012","","d","true","[[315,599],[522,500],[599,284],[500,77],[284,0],[77,99],[0,315],[99,522]]","true","8","main_T2_Trial","d","img/Fire_Up_Target.gif","[""img/Fire_Down_Distractor.gif"",""img/Fire_Down_Distractor.gif"",""img/Fire_Down_Distractor.gif"",""img/Fire_Down_Distractor.gif"",""img/Fire_Down_Distractor.gif"",""img/Fire_Down_Distractor.gif"",""img/Fire_Down_Distractor.gif"",""img/Fire_Down_Distractor.gif"",""img/Fire_Down_Distractor.gif"",""img/Fire_Down_Distractor.gif"",""img/Fire_Down_Distractor.gif"",""img/Fire_Down_Distractor.gif""]","8","targetUp_distractorsDown"
"","","","","","html-keyboard-response","188","1519832","0.0-14.0-0.0-0.87","5f52b69cd864aa5b51e1fc63","619531dcf66c91622fa1b861","6195a214b03721644d34ff2f","null","","null","","","","","main_T1_ITI","","","","",""
"","","","","","visual-search-circle","189","1521874","0.0-14.0-0.0-1.87","5f52b69cd864aa5b51e1fc63","619531dcf66c91622fa1b861","6195a214b03721644d34ff2f","1026","","s","true","[[23,182],[103,526],[454,557],[592,232],[326,1]]","false","5","main_T2_Trial","s","img/Fire_Down_Target.gif","[""img/Fire_Up_Distractor.gif"",""img/Fire_Up_Distractor.gif"",""img/Fire_Up_Distractor.gif"",""img/Fire_Up_Distractor.gif"",""img/Fire_Up_Distractor.gif"",""img/Fire_Up_Distractor.gif"",""img/Fire_Up_Distractor.gif"",""img/Fire_Up_Distractor.gif"",""img/Fire_Up_Distractor.gif"",""img/Fire_Up_Distractor.gif"",""img/Fire_Up_Distractor.gif"",""img/Fire_Up_Distractor.gif""]","5","targetDown_distractorsUp"
"","","","","","html-keyboard-response","190","1521874","0.0-14.0-0.0-0.88","5f52b69cd864aa5b51e1fc63","619531dcf66c91622fa1b861","6195a214b03721644d34ff2f","null","","null","","","","","main_T1_ITI","","","","",""
"","","","","","visual-search-circle","191","1524143","0.0-14.0-0.0-1.88","5f52b69cd864aa5b51e1fc63","619531dcf66c91622fa1b861","6195a214b03721644d34ff2f","1265","","s","true","[[1,273],[273,598],[598,326],[326,1]]","false","4","main_T2_Trial","s","img/Fire_Up_Target.gif","[""img/Fire_Down_Distractor.gif"",""img/Fire_Down_Distractor.gif"",""img/Fire_Down_Distractor.gif"",""img/Fire_Down_Distractor.gif"",""img/Fire_Down_Distractor.gif"",""img/Fire_Down_Distractor.gif"",""img/Fire_Down_Distractor.gif"",""img/Fire_Down_Distractor.gif"",""img/Fire_Down_Distractor.gif"",""img/Fire_Down_Distractor.gif"",""img/Fire_Down_Distractor.gif"",""img/Fire_Down_Distractor.gif""]","4","targetUp_distractorsDown"
"","","","","","html-keyboard-response","192","1524143","0.0-14.0-0.0-0.89","5f52b69cd864aa5b51e1fc63","619531dcf66c91622fa1b861","6195a214b03721644d34ff2f","null","","null","","","","","main_T1_ITI","","","","",""
"","","","","","visual-search-circle","193","1526039","0.0-14.0-0.0-1.89","5f52b69cd864aa5b51e1fc63","619531dcf66c91622fa1b861","6195a214b03721644d34ff2f","880","","s","true","[[2,341],[341,597],[597,258],[258,2]]","false","4","main_T2_Trial","s","img/Fire_Down_Target.gif","[""img/Fire_Up_Distractor.gif"",""img/Fire_Up_Distractor.gif"",""img/Fire_Up_Distractor.gif"",""img/Fire_Up_Distractor.gif"",""img/Fire_Up_Distractor.gif"",""img/Fire_Up_Distractor.gif"",""img/Fire_Up_Distractor.gif"",""img/Fire_Up_Distractor.gif"",""img/Fire_Up_Distractor.gif"",""img/Fire_Up_Distractor.gif"",""img/Fire_Up_Distractor.gif"",""img/Fire_Up_Distractor.gif""]","4","targetDown_distractorsUp"
"","","","","","html-keyboard-response","194","1526039","0.0-14.0-0.0-0.90","5f52b69cd864aa5b51e1fc63","619531dcf66c91622fa1b861","6195a214b03721644d34ff2f","null","","null","","","","","main_T1_ITI","","","","",""
"","","","","","visual-search-circle","195","1528416","0.0-14.0-0.0-1.90","5f52b69cd864aa5b51e1fc63","619531dcf66c91622fa1b861","6195a214b03721644d34ff2f","1358","","d","true","[[30,168],[51,467],[320,599],[569,431],[548,132],[279,0]]","true","6","main_T2_Trial","d","img/Fire_Down_Target.gif","[""img/Fire_Up_Distractor.gif"",""img/Fire_Up_Distractor.gif"",""img/Fire_Up_Distractor.gif"",""img/Fire_Up_Distractor.gif"",""img/Fire_Up_Distractor.gif"",""img/Fire_Up_Distractor.gif"",""img/Fire_Up_Distractor.gif"",""img/Fire_Up_Distractor.gif"",""img/Fire_Up_Distractor.gif"",""img/Fire_Up_Distractor.gif"",""img/Fire_Up_Distractor.gif"",""img/Fire_Up_Distractor.gif""]","6","targetDown_distractorsUp"
"","","","","","html-keyboard-response","196","1528417","0.0-14.0-0.0-0.91","5f52b69cd864aa5b51e1fc63","619531dcf66c91622fa1b861","6195a214b03721644d34ff2f","null","","null","","","","","main_T1_ITI","","","","",""
"","","","","","visual-search-circle","197","1530057","0.0-14.0-0.0-1.91","5f52b69cd864aa5b51e1fc63","619531dcf66c91622fa1b861","6195a214b03721644d34ff2f","637","","s","true","[[578,187],[341,2],[63,115],[21,412],[258,597],[536,484]]","false","6","main_T2_Trial","s","img/Fire_Up_Target.gif","[""img/Fire_Down_Distractor.gif"",""img/Fire_Down_Distractor.gif"",""img/Fire_Down_Distractor.gif"",""img/Fire_Down_Distractor.gif"",""img/Fire_Down_Distractor.gif"",""img/Fire_Down_Distractor.gif"",""img/Fire_Down_Distractor.gif"",""img/Fire_Down_Distractor.gif"",""img/Fire_Down_Distractor.gif"",""img/Fire_Down_Distractor.gif"",""img/Fire_Down_Distractor.gif"",""img/Fire_Down_Distractor.gif""]","6","targetUp_distractorsDown"
"","","","","","html-keyboard-response","198","1530057","0.0-14.0-0.0-0.92","5f52b69cd864aa5b51e1fc63","619531dcf66c91622fa1b861","6195a214b03721644d34ff2f","null","","null","","","","","main_T1_ITI","","","","",""
"","","","","","visual-search-circle","199","1531824","0.0-14.0-0.0-1.92","5f52b69cd864aa5b51e1fc63","619531dcf66c91622fa1b861","6195a214b03721644d34ff2f","756","","d","true","[[0,294],[294,599],[599,305],[305,0]]","true","4","main_T2_Trial","d","img/Fire_Down_Target.gif","[""img/Fire_Up_Distractor.gif"",""img/Fire_Up_Distractor.gif"",""img/Fire_Up_Distractor.gif"",""img/Fire_Up_Distractor.gif"",""img/Fire_Up_Distractor.gif"",""img/Fire_Up_Distractor.gif"",""img/Fire_Up_Distractor.gif"",""img/Fire_Up_Distractor.gif"",""img/Fire_Up_Distractor.gif"",""img/Fire_Up_Distractor.gif"",""img/Fire_Up_Distractor.gif"",""img/Fire_Up_Distractor.gif""]","4","targetDown_distractorsUp"
"","","","","","html-keyboard-response","200","1531824","0.0-14.0-0.0-0.93","5f52b69cd864aa5b51e1fc63","619531dcf66c91622fa1b861","6195a214b03721644d34ff2f","null","","null","","","","","main_T1_ITI","","","","",""
"","","","","","visual-search-circle","201","1534696","0.0-14.0-0.0-1.93","5f52b69cd864aa5b51e1fc63","619531dcf66c91622fa1b861","6195a214b03721644d34ff2f","1850","","s","true","[[1,326],[134,549],[391,585],[580,406],[557,146],[341,2],[93,82]]","false","7","main_T2_Trial","s","img/Fire_Up_Target.gif","[""img/Fire_Down_Distractor.gif"",""img/Fire_Down_Distractor.gif"",""img/Fire_Down_Distractor.gif"",""img/Fire_Down_Distractor.gif"",""img/Fire_Down_Distractor.gif"",""img/Fire_Down_Distractor.gif"",""img/Fire_Down_Distractor.gif"",""img/Fire_Down_Distractor.gif"",""img/Fire_Down_Distractor.gif"",""img/Fire_Down_Distractor.gif"",""img/Fire_Down_Distractor.gif"",""img/Fire_Down_Distractor.gif""]","7","targetUp_distractorsDown"
"","","","","","html-keyboard-response","202","1534697","0.0-14.0-0.0-0.94","5f52b69cd864aa5b51e1fc63","619531dcf66c91622fa1b861","6195a214b03721644d34ff2f","null","","null","","","","","main_T1_ITI","","","","",""
"","","","","","visual-search-circle","203","1536476","0.0-14.0-0.0-1.94","5f52b69cd864aa5b51e1fc63","619531dcf66c91622fa1b861","6195a214b03721644d34ff2f","767","","d","true","[[247,4],[54,127],[4,352],[127,545],[352,595],[545,472],[595,247],[472,54]]","true","8","main_T2_Trial","d","img/Fire_Down_Target.gif","[""img/Fire_Up_Distractor.gif"",""img/Fire_Up_Distractor.gif"",""img/Fire_Up_Distractor.gif"",""img/Fire_Up_Distractor.gif"",""img/Fire_Up_Distractor.gif"",""img/Fire_Up_Distractor.gif"",""img/Fire_Up_Distractor.gif"",""img/Fire_Up_Distractor.gif"",""img/Fire_Up_Distractor.gif"",""img/Fire_Up_Distractor.gif"",""img/Fire_Up_Distractor.gif"",""img/Fire_Up_Distractor.gif""]","8","targetDown_distractorsUp"
"","","","","","html-keyboard-response","204","1536476","0.0-14.0-0.0-0.95","5f52b69cd864aa5b51e1fc63","619531dcf66c91622fa1b861","6195a214b03721644d34ff2f","null","","null","","","","","main_T1_ITI","","","","",""
"","","","","","visual-search-circle","205","1538756","0.0-14.0-0.0-1.95","5f52b69cd864aa5b51e1fc63","619531dcf66c91622fa1b861","6195a214b03721644d34ff2f","1266","","d","true","[[136,48],[1,270],[91,515],[338,597],[556,455],[581,196],[394,15]]","true","7","main_T2_Trial","d","img/Fire_Down_Target.gif","[""img/Fire_Up_Distractor.gif"",""img/Fire_Up_Distractor.gif"",""img/Fire_Up_Distractor.gif"",""img/Fire_Up_Distractor.gif"",""img/Fire_Up_Distractor.gif"",""img/Fire_Up_Distractor.gif"",""img/Fire_Up_Distractor.gif"",""img/Fire_Up_Distractor.gif"",""img/Fire_Up_Distractor.gif"",""img/Fire_Up_Distractor.gif"",""img/Fire_Up_Distractor.gif"",""img/Fire_Up_Distractor.gif""]","7","targetDown_distractorsUp"
"","","","","","html-keyboard-response","206","1538756","0.0-14.0-0.0-0.96","5f52b69cd864aa5b51e1fc63","619531dcf66c91622fa1b861","6195a214b03721644d34ff2f","null","","null","","","","","main_T1_ITI","","","","",""
"","","","","","visual-search-circle","207","1540742","0.0-14.0-0.0-1.96","5f52b69cd864aa5b51e1fc63","619531dcf66c91622fa1b861","6195a214b03721644d34ff2f","972","","d","true","[[48,463],[270,598],[515,508],[597,261],[455,43],[196,18],[15,205]]","true","7","main_T2_Trial","d","img/Fire_Down_Target.gif","[""img/Fire_Up_Distractor.gif"",""img/Fire_Up_Distractor.gif"",""img/Fire_Up_Distractor.gif"",""img/Fire_Up_Distractor.gif"",""img/Fire_Up_Distractor.gif"",""img/Fire_Up_Distractor.gif"",""img/Fire_Up_Distractor.gif"",""img/Fire_Up_Distractor.gif"",""img/Fire_Up_Distractor.gif"",""img/Fire_Up_Distractor.gif"",""img/Fire_Up_Distractor.gif"",""img/Fire_Up_Distractor.gif""]","7","targetDown_distractorsUp"
"","","","","","html-keyboard-response","208","1540742","0.0-14.0-0.0-0.97","5f52b69cd864aa5b51e1fc63","619531dcf66c91622fa1b861","6195a214b03721644d34ff2f","null","","null","","","","","main_T1_ITI","","","","",""
"","","","","","visual-search-circle","209","1542706","0.0-14.0-0.0-1.97","5f52b69cd864aa5b51e1fc63","619531dcf66c91622fa1b861","6195a214b03721644d34ff2f","958","","d","true","[[458,45],[232,7],[45,141],[7,367],[141,554],[367,592],[554,458],[592,232]]","true","8","main_T2_Trial","d","img/Fire_Down_Target.gif","[""img/Fire_Up_Distractor.gif"",""img/Fire_Up_Distractor.gif"",""img/Fire_Up_Distractor.gif"",""img/Fire_Up_Distractor.gif"",""img/Fire_Up_Distractor.gif"",""img/Fire_Up_Distractor.gif"",""img/Fire_Up_Distractor.gif"",""img/Fire_Up_Distractor.gif"",""img/Fire_Up_Distractor.gif"",""img/Fire_Up_Distractor.gif"",""img/Fire_Up_Distractor.gif"",""img/Fire_Up_Distractor.gif""]","8","targetDown_distractorsUp"
"","","","","","html-keyboard-response","210","1542707","0.0-14.0-0.0-0.98","5f52b69cd864aa5b51e1fc63","619531dcf66c91622fa1b861","6195a214b03721644d34ff2f","null","","null","","","","","main_T1_ITI","","","","",""
"","","","","","visual-search-circle","211","1544373","0.0-14.0-0.0-1.98","5f52b69cd864aa5b51e1fc63","619531dcf66c91622fa1b861","6195a214b03721644d34ff2f","643","","s","true","[[182,576],[412,578],[576,417],[578,187],[417,23],[187,21],[23,182],[21,412]]","false","8","main_T2_Trial","s","img/Fire_Down_Target.gif","[""img/Fire_Up_Distractor.gif"",""img/Fire_Up_Distractor.gif"",""img/Fire_Up_Distractor.gif"",""img/Fire_Up_Distractor.gif"",""img/Fire_Up_Distractor.gif"",""img/Fire_Up_Distractor.gif"",""img/Fire_Up_Distractor.gif"",""img/Fire_Up_Distractor.gif"",""img/Fire_Up_Distractor.gif"",""img/Fire_Up_Distractor.gif"",""img/Fire_Up_Distractor.gif"",""img/Fire_Up_Distractor.gif""]","8","targetDown_distractorsUp"
"","","","","","html-keyboard-response","212","1545932","0.0-14.0-0.0-0.99","5f52b69cd864aa5b51e1fc63","619531dcf66c91622fa1b861","6195a214b03721644d34ff2f","1560","Wow! You've completed 100 out of 160 trials! </p> <p>  </p><p> Take a quick break, then press any key when you're ready to continue."," ","","","","","main_T1_ITI","","","","",""
"","","","","","visual-search-circle","213","1548119","0.0-14.0-0.0-1.99","5f52b69cd864aa5b51e1fc63","619531dcf66c91622fa1b861","6195a214b03721644d34ff2f","1181","","s","true","[[586,212],[367,7],[80,95],[13,387],[232,592],[519,504]]","false","6","main_T2_Trial","s","img/Fire_Down_Target.gif","[""img/Fire_Up_Distractor.gif"",""img/Fire_Up_Distractor.gif"",""img/Fire_Up_Distractor.gif"",""img/Fire_Up_Distractor.gif"",""img/Fire_Up_Distractor.gif"",""img/Fire_Up_Distractor.gif"",""img/Fire_Up_Distractor.gif"",""img/Fire_Up_Distractor.gif"",""img/Fire_Up_Distractor.gif"",""img/Fire_Up_Distractor.gif"",""img/Fire_Up_Distractor.gif"",""img/Fire_Up_Distractor.gif""]","6","targetDown_distractorsUp"
"","","","","","html-keyboard-response","214","1548120","0.0-14.0-0.0-0.100","5f52b69cd864aa5b51e1fc63","619531dcf66c91622fa1b861","6195a214b03721644d34ff2f","null","","null","","","","","main_T1_ITI","","","","",""
"","","","","","visual-search-circle","215","1550037","0.0-14.0-0.0-1.100","5f52b69cd864aa5b51e1fc63","619531dcf66c91622fa1b861","6195a214b03721644d34ff2f","909","","d","true","[[402,581],[595,352],[492,70],[197,18],[4,247],[107,529]]","true","6","main_T2_Trial","d","img/Fire_Up_Target.gif","[""img/Fire_Down_Distractor.gif"",""img/Fire_Down_Distractor.gif"",""img/Fire_Down_Distractor.gif"",""img/Fire_Down_Distractor.gif"",""img/Fire_Down_Distractor.gif"",""img/Fire_Down_Distractor.gif"",""img/Fire_Down_Distractor.gif"",""img/Fire_Down_Distractor.gif"",""img/Fire_Down_Distractor.gif"",""img/Fire_Down_Distractor.gif"",""img/Fire_Down_Distractor.gif"",""img/Fire_Down_Distractor.gif""]","6","targetUp_distractorsDown"
"","","","","","html-keyboard-response","216","1550038","0.0-14.0-0.0-0.101","5f52b69cd864aa5b51e1fc63","619531dcf66c91622fa1b861","6195a214b03721644d34ff2f","null","","null","","","","","main_T1_ITI","","","","",""
"","","","","","visual-search-circle","217","1552265","0.0-14.0-0.0-1.101","5f52b69cd864aa5b51e1fc63","619531dcf66c91622fa1b861","6195a214b03721644d34ff2f","1215","","s","false","[[372,8],[84,91],[11,382],[227,591],[515,508],[588,217]]","true","6","main_T2_Trial","d","img/Fire_Up_Target.gif","[""img/Fire_Down_Distractor.gif"",""img/Fire_Down_Distractor.gif"",""img/Fire_Down_Distractor.gif"",""img/Fire_Down_Distractor.gif"",""img/Fire_Down_Distractor.gif"",""img/Fire_Down_Distractor.gif"",""img/Fire_Down_Distractor.gif"",""img/Fire_Down_Distractor.gif"",""img/Fire_Down_Distractor.gif"",""img/Fire_Down_Distractor.gif"",""img/Fire_Down_Distractor.gif"",""img/Fire_Down_Distractor.gif""]","6","targetUp_distractorsDown"
"","","","","","html-keyboard-response","218","1552265","0.0-14.0-0.0-0.102","5f52b69cd864aa5b51e1fc63","619531dcf66c91622fa1b861","6195a214b03721644d34ff2f","null","","null","","","","","main_T1_ITI","","","","",""
