"success","timeout","failed_images","failed_audio","failed_video","trial_type","trial_index","time_elapsed","internal_node_id","subject_id","study_id","session_id","rt","stimulus","response","correct","locations","target_present","set_size","task","correct_response","target","foilCM","setSizeCM","searchCondition"
"true","false","[]","[]","[]","preload","0","102251","0.0-0.0","5f52709068e37c52492decd4","619531dcf66c91622fa1b861","6195994ee5a569f5e2ff8c7d","","","","","","","","","","","","",""
"true","","","","","fullscreen","1","107564","0.0-1.0","5f52709068e37c52492decd4","619531dcf66c91622fa1b861","6195994ee5a569f5e2ff8c7d","","","","","","","","","","","","",""
"","","","","","html-keyboard-response","2","117851","0.0-2.0","5f52709068e37c52492decd4","619531dcf66c91622fa1b861","6195994ee5a569f5e2ff8c7d","10286.90000000596","What a beautiful Thursday to do some awesome science! </p> <p>  </p><p> </p>
    By completing this survey or questionnaire, you are consenting to be in this research study. </p>
    Your participation is voluntary and you can stop at any time.
    <p> [Press any key to continue.] </p>
    
    ","f","","","","","","","","","",""
"","","","","","video-keyboard-response","3","162774","0.0-3.0","5f52709068e37c52492decd4","619531dcf66c91622fa1b861","6195994ee5a569f5e2ff8c7d","44919.5","[""video/TaskInstructions.mp4""]","f","","","","","","","","","",""
"","","","","","html-keyboard-response","4","168295","0.0-4.0","5f52709068e37c52492decd4","619531dcf66c91622fa1b861","6195994ee5a569f5e2ff8c7d","5520.899999976158","
    <p>First, we're going to do a few practice trials to make sure you understand the task. You will recieve feedback on each trial. </p>
    <p>[Press any key to begin the familiarization phase.]</p>
    ","f","","","","","","","","","",""
"","","","","","visual-search-circle","5","173107","0.0-5.0-0.0","5f52709068e37c52492decd4","619531dcf66c91622fa1b861","6195994ee5a569f5e2ff8c7d","3757.9000000059605","","d","true","[[467,51],[51,132],[132,548],[548,467]]","true","4","training","d","","","",""
"","","","","","html-keyboard-response","6","176865","0.0-6.0","5f52709068e37c52492decd4","619531dcf66c91622fa1b861","6195994ee5a569f5e2ff8c7d","3757.7000000178814"," <div style='float: center; '><img src='img/feedbackRight.png'></img> </div> "," ","","","","","","","","","",""
"","","","","","visual-search-circle","7","179050","0.0-7.0-0.0","5f52709068e37c52492decd4","619531dcf66c91622fa1b861","6195994ee5a569f5e2ff8c7d","1178.0999999940395","","s","true","[[542,476],[476,57],[57,123],[123,542]]","false","4","training","s","","","",""
"","","","","","html-keyboard-response","8","180263","0.0-8.0","5f52709068e37c52492decd4","619531dcf66c91622fa1b861","6195994ee5a569f5e2ff8c7d","1212.3999999761581"," <div style='float: center; '><img src='img/feedbackRight.png'></img> </div> "," ","","","","","","","","","",""
"","","","","","visual-search-circle","9","182819","0.0-9.0-0.0","5f52709068e37c52492decd4","619531dcf66c91622fa1b861","6195994ee5a569f5e2ff8c7d","1539.699999988079","","s","true","[[554,458],[564,159],[310,0],[45,141],[35,440],[289,599]]","false","6","training","s","","","",""
"","","","","","html-keyboard-response","10","183315","0.0-10.0","5f52709068e37c52492decd4","619531dcf66c91622fa1b861","6195994ee5a569f5e2ff8c7d","495.60000002384186"," <div style='float: center; '><img src='img/feedbackRight.png'></img> </div> "," ","","","","","","","","","",""
"","","","","","visual-search-circle","11","185285","0.0-11.0-0.0","5f52709068e37c52492decd4","619531dcf66c91622fa1b861","6195994ee5a569f5e2ff8c7d","957.0999999940395","","d","true","[[30,168],[16,397],[168,569],[397,583],[569,431],[583,202],[431,30],[202,16]]","true","8","training","d","","","",""
"","","","","","html-keyboard-response","12","185751","0.0-12.0","5f52709068e37c52492decd4","619531dcf66c91622fa1b861","6195994ee5a569f5e2ff8c7d","464.80000001192093"," <div style='float: center; '><img src='img/feedbackRight.png'></img> </div> "," ","","","","","","","","","",""
"","","","","","video-keyboard-response","13","194777","0.0-13.0","5f52709068e37c52492decd4","619531dcf66c91622fa1b861","6195994ee5a569f5e2ff8c7d","9025","[""video/endTraining.mp4""]"," ","","","","","","","","","",""
"","","","","","html-keyboard-response","14","194790","0.0-14.0-0.0-0.0","5f52709068e37c52492decd4","619531dcf66c91622fa1b861","6195994ee5a569f5e2ff8c7d","null","","null","","","","","main_T1_ITI","","","","",""
"","","","","","visual-search-circle","15","197078","0.0-14.0-0.0-1.0","5f52709068e37c52492decd4","619531dcf66c91622fa1b861","6195994ee5a569f5e2ff8c7d","1283.7000000178814","","s","true","[[268,1],[47,138],[16,396],[198,582],[457,555],[597,335],[513,89]]","false","7","main_T2_Trial","s","img/Fire_Up_Target.gif","[""img/Fire_Down_Distractor.gif"",""img/Fire_Down_Distractor.gif"",""img/Fire_Down_Distractor.gif"",""img/Fire_Down_Distractor.gif"",""img/Fire_Down_Distractor.gif"",""img/Fire_Down_Distractor.gif"",""img/Fire_Down_Distractor.gif"",""img/Fire_Down_Distractor.gif"",""img/Fire_Down_Distractor.gif"",""img/Fire_Down_Distractor.gif"",""img/Fire_Down_Distractor.gif"",""img/Fire_Down_Distractor.gif""]","7","targetUp_distractorsDown"
"","","","","","html-keyboard-response","16","197080","0.0-14.0-0.0-0.1","5f52709068e37c52492decd4","619531dcf66c91622fa1b861","6195994ee5a569f5e2ff8c7d","null","","null","","","","","main_T1_ITI","","","","",""
"","","","","","visual-search-circle","17","200080","0.0-14.0-0.0-1.1","5f52709068e37c52492decd4","619531dcf66c91622fa1b861","6195994ee5a569f5e2ff8c7d","1995.7000000178814","","s","true","[[1,331],[111,533],[331,598],[533,488],[598,268],[488,66],[268,1],[66,111]]","false","8","main_T2_Trial","s","img/Fire_Up_Target.gif","[""img/Fire_Down_Distractor.gif"",""img/Fire_Down_Distractor.gif"",""img/Fire_Down_Distractor.gif"",""img/Fire_Down_Distractor.gif"",""img/Fire_Down_Distractor.gif"",""img/Fire_Down_Distractor.gif"",""img/Fire_Down_Distractor.gif"",""img/Fire_Down_Distractor.gif"",""img/Fire_Down_Distractor.gif"",""img/Fire_Down_Distractor.gif"",""img/Fire_Down_Distractor.gif"",""img/Fire_Down_Distractor.gif""]","8","targetUp_distractorsDown"
"","","","","","html-keyboard-response","18","200082","0.0-14.0-0.0-0.2","5f52709068e37c52492decd4","619531dcf66c91622fa1b861","6195994ee5a569f5e2ff8c7d","null","","null","","","","","main_T1_ITI","","","","",""
"","","","","","visual-search-circle","19","202480","0.0-14.0-0.0-1.2","5f52709068e37c52492decd4","619531dcf66c91622fa1b861","6195994ee5a569f5e2ff8c7d","1394.699999988079","","s","true","[[37,154],[80,504],[426,571],[597,263],[357,5]]","false","5","main_T2_Trial","s","img/Fire_Up_Target.gif","[""img/Fire_Down_Distractor.gif"",""img/Fire_Down_Distractor.gif"",""img/Fire_Down_Distractor.gif"",""img/Fire_Down_Distractor.gif"",""img/Fire_Down_Distractor.gif"",""img/Fire_Down_Distractor.gif"",""img/Fire_Down_Distractor.gif"",""img/Fire_Down_Distractor.gif"",""img/Fire_Down_Distractor.gif"",""img/Fire_Down_Distractor.gif"",""img/Fire_Down_Distractor.gif"",""img/Fire_Down_Distractor.gif""]","5","targetUp_distractorsDown"
"","","","","","html-keyboard-response","20","202481","0.0-14.0-0.0-0.3","5f52709068e37c52492decd4","619531dcf66c91622fa1b861","6195994ee5a569f5e2ff8c7d","null","","null","","","","","main_T1_ITI","","","","",""
"","","","","","visual-search-circle","21","204771","0.0-14.0-0.0-1.3","5f52709068e37c52492decd4","619531dcf66c91622fa1b861","6195994ee5a569f5e2ff8c7d","1286.5999999940395","","d","true","[[111,533],[407,580],[596,346],[488,66],[192,19],[3,253]]","true","6","main_T2_Trial","d","img/Fire_Up_Target.gif","[""img/Fire_Down_Distractor.gif"",""img/Fire_Down_Distractor.gif"",""img/Fire_Down_Distractor.gif"",""img/Fire_Down_Distractor.gif"",""img/Fire_Down_Distractor.gif"",""img/Fire_Down_Distractor.gif"",""img/Fire_Down_Distractor.gif"",""img/Fire_Down_Distractor.gif"",""img/Fire_Down_Distractor.gif"",""img/Fire_Down_Distractor.gif"",""img/Fire_Down_Distractor.gif"",""img/Fire_Down_Distractor.gif""]","6","targetUp_distractorsDown"
"","","","","","html-keyboard-response","22","204773","0.0-14.0-0.0-0.4","5f52709068e37c52492decd4","619531dcf66c91622fa1b861","6195994ee5a569f5e2ff8c7d","null","","null","","","","","main_T1_ITI","","","","",""
"","","","","","visual-search-circle","23","207342","0.0-14.0-0.0-1.4","5f52709068e37c52492decd4","619531dcf66c91622fa1b861","6195994ee5a569f5e2ff8c7d","1567.199999988079","","s","true","[[336,2],[2,263],[263,597],[597,336]]","false","4","main_T2_Trial","s","img/Fire_Up_Target.gif","[""img/Fire_Down_Distractor.gif"",""img/Fire_Down_Distractor.gif"",""img/Fire_Down_Distractor.gif"",""img/Fire_Down_Distractor.gif"",""img/Fire_Down_Distractor.gif"",""img/Fire_Down_Distractor.gif"",""img/Fire_Down_Distractor.gif"",""img/Fire_Down_Distractor.gif"",""img/Fire_Down_Distractor.gif"",""img/Fire_Down_Distractor.gif"",""img/Fire_Down_Distractor.gif"",""img/Fire_Down_Distractor.gif""]","4","targetUp_distractorsDown"
"","","","","","html-keyboard-response","24","207356","0.0-14.0-0.0-0.5","5f52709068e37c52492decd4","619531dcf66c91622fa1b861","6195994ee5a569f5e2ff8c7d","null","","null","","","","","main_T1_ITI","","","","",""
"","","","","","visual-search-circle","25","209267","0.0-14.0-0.0-1.5","5f52709068e37c52492decd4","619531dcf66c91622fa1b861","6195994ee5a569f5e2ff8c7d","905.6999999880791","","d","true","[[37,154],[11,382],[154,562],[382,588],[562,445],[588,217],[445,37],[217,11]]","true","8","main_T2_Trial","d","img/Fire_Down_Target.gif","[""img/Fire_Up_Distractor.gif"",""img/Fire_Up_Distractor.gif"",""img/Fire_Up_Distractor.gif"",""img/Fire_Up_Distractor.gif"",""img/Fire_Up_Distractor.gif"",""img/Fire_Up_Distractor.gif"",""img/Fire_Up_Distractor.gif"",""img/Fire_Up_Distractor.gif"",""img/Fire_Up_Distractor.gif"",""img/Fire_Up_Distractor.gif"",""img/Fire_Up_Distractor.gif"",""img/Fire_Up_Distractor.gif""]","8","targetDown_distractorsUp"
"","","","","","html-keyboard-response","26","209269","0.0-14.0-0.0-0.6","5f52709068e37c52492decd4","619531dcf66c91622fa1b861","6195994ee5a569f5e2ff8c7d","null","","null","","","","","main_T1_ITI","","","","",""
"","","","","","visual-search-circle","27","211326","0.0-14.0-0.0-1.6","5f52709068e37c52492decd4","619531dcf66c91622fa1b861","6195994ee5a569f5e2ff8c7d","1041.0999999940395","","d","true","[[593,237],[237,6],[6,362],[362,593]]","true","4","main_T2_Trial","d","img/Fire_Down_Target.gif","[""img/Fire_Up_Distractor.gif"",""img/Fire_Up_Distractor.gif"",""img/Fire_Up_Distractor.gif"",""img/Fire_Up_Distractor.gif"",""img/Fire_Up_Distractor.gif"",""img/Fire_Up_Distractor.gif"",""img/Fire_Up_Distractor.gif"",""img/Fire_Up_Distractor.gif"",""img/Fire_Up_Distractor.gif"",""img/Fire_Up_Distractor.gif"",""img/Fire_Up_Distractor.gif"",""img/Fire_Up_Distractor.gif""]","4","targetDown_distractorsUp"
"","","","","","html-keyboard-response","28","211327","0.0-14.0-0.0-0.7","5f52709068e37c52492decd4","619531dcf66c91622fa1b861","6195994ee5a569f5e2ff8c7d","null","","null","","","","","main_T1_ITI","","","","",""
"","","","","","visual-search-circle","29","213632","0.0-14.0-0.0-1.7","5f52709068e37c52492decd4","619531dcf66c91622fa1b861","6195994ee5a569f5e2ff8c7d","1299.199999988079","","d","true","[[294,0],[0,305],[305,599],[599,294]]","true","4","main_T2_Trial","d","img/Fire_Up_Target.gif","[""img/Fire_Down_Distractor.gif"",""img/Fire_Down_Distractor.gif"",""img/Fire_Down_Distractor.gif"",""img/Fire_Down_Distractor.gif"",""img/Fire_Down_Distractor.gif"",""img/Fire_Down_Distractor.gif"",""img/Fire_Down_Distractor.gif"",""img/Fire_Down_Distractor.gif"",""img/Fire_Down_Distractor.gif"",""img/Fire_Down_Distractor.gif"",""img/Fire_Down_Distractor.gif"",""img/Fire_Down_Distractor.gif""]","4","targetUp_distractorsDown"
"","","","","","html-keyboard-response","30","213639","0.0-14.0-0.0-0.8","5f52709068e37c52492decd4","619531dcf66c91622fa1b861","6195994ee5a569f5e2ff8c7d","null","","null","","","","","main_T1_ITI","","","","",""
"","","","","","visual-search-circle","31","216519","0.0-14.0-0.0-1.8","5f52709068e37c52492decd4","619531dcf66c91622fa1b861","6195994ee5a569f5e2ff8c7d","1864.8999999761581","","d","true","[[529,492],[492,70],[70,107],[107,529]]","true","4","main_T2_Trial","d","img/Fire_Down_Target.gif","[""img/Fire_Up_Distractor.gif"",""img/Fire_Up_Distractor.gif"",""img/Fire_Up_Distractor.gif"",""img/Fire_Up_Distractor.gif"",""img/Fire_Up_Distractor.gif"",""img/Fire_Up_Distractor.gif"",""img/Fire_Up_Distractor.gif"",""img/Fire_Up_Distractor.gif"",""img/Fire_Up_Distractor.gif"",""img/Fire_Up_Distractor.gif"",""img/Fire_Up_Distractor.gif"",""img/Fire_Up_Distractor.gif""]","4","targetDown_distractorsUp"
"","","","","","html-keyboard-response","32","216545","0.0-14.0-0.0-0.9","5f52709068e37c52492decd4","619531dcf66c91622fa1b861","6195994ee5a569f5e2ff8c7d","null","","null","","","","","main_T1_ITI","","","","",""
"","","","","","visual-search-circle","33","218759","0.0-14.0-0.0-1.9","5f52709068e37c52492decd4","619531dcf66c91622fa1b861","6195994ee5a569f5e2ff8c7d","1209","","s","true","[[571,426],[426,28],[28,173],[173,571]]","false","4","main_T2_Trial","s","img/Fire_Up_Target.gif","[""img/Fire_Down_Distractor.gif"",""img/Fire_Down_Distractor.gif"",""img/Fire_Down_Distractor.gif"",""img/Fire_Down_Distractor.gif"",""img/Fire_Down_Distractor.gif"",""img/Fire_Down_Distractor.gif"",""img/Fire_Down_Distractor.gif"",""img/Fire_Down_Distractor.gif"",""img/Fire_Down_Distractor.gif"",""img/Fire_Down_Distractor.gif"",""img/Fire_Down_Distractor.gif"",""img/Fire_Down_Distractor.gif""]","4","targetUp_distractorsDown"
"","","","","","html-keyboard-response","34","218761","0.0-14.0-0.0-0.10","5f52709068e37c52492decd4","619531dcf66c91622fa1b861","6195994ee5a569f5e2ff8c7d","null","","null","","","","","main_T1_ITI","","","","",""
"","","","","","visual-search-circle","35","221179","0.0-14.0-0.0-1.10","5f52709068e37c52492decd4","619531dcf66c91622fa1b861","6195994ee5a569f5e2ff8c7d","1402","","s","true","[[273,598],[576,417],[496,73],[145,42],[7,367]]","false","5","main_T2_Trial","s","img/Fire_Up_Target.gif","[""img/Fire_Down_Distractor.gif"",""img/Fire_Down_Distractor.gif"",""img/Fire_Down_Distractor.gif"",""img/Fire_Down_Distractor.gif"",""img/Fire_Down_Distractor.gif"",""img/Fire_Down_Distractor.gif"",""img/Fire_Down_Distractor.gif"",""img/Fire_Down_Distractor.gif"",""img/Fire_Down_Distractor.gif"",""img/Fire_Down_Distractor.gif"",""img/Fire_Down_Distractor.gif"",""img/Fire_Down_Distractor.gif""]","5","targetUp_distractorsDown"
"","","","","","html-keyboard-response","36","221182","0.0-14.0-0.0-0.11","5f52709068e37c52492decd4","619531dcf66c91622fa1b861","6195994ee5a569f5e2ff8c7d","null","","null","","","","","main_T1_ITI","","","","",""
"","","","","","visual-search-circle","37","224103","0.0-14.0-0.0-1.11","5f52709068e37c52492decd4","619531dcf66c91622fa1b861","6195994ee5a569f5e2ff8c7d","1903.300000011921","","d","true","[[492,70],[240,5],[33,163],[26,423],[225,590],[481,539],[599,307]]","true","7","main_T2_Trial","d","img/Fire_Up_Target.gif","[""img/Fire_Down_Distractor.gif"",""img/Fire_Down_Distractor.gif"",""img/Fire_Down_Distractor.gif"",""img/Fire_Down_Distractor.gif"",""img/Fire_Down_Distractor.gif"",""img/Fire_Down_Distractor.gif"",""img/Fire_Down_Distractor.gif"",""img/Fire_Down_Distractor.gif"",""img/Fire_Down_Distractor.gif"",""img/Fire_Down_Distractor.gif"",""img/Fire_Down_Distractor.gif"",""img/Fire_Down_Distractor.gif""]","7","targetUp_distractorsDown"
"","","","","","html-keyboard-response","38","224104","0.0-14.0-0.0-0.12","5f52709068e37c52492decd4","619531dcf66c91622fa1b861","6195994ee5a569f5e2ff8c7d","null","","null","","","","","main_T1_ITI","","","","",""
"","","","","","visual-search-circle","39","226228","0.0-14.0-0.0-1.12","5f52709068e37c52492decd4","619531dcf66c91622fa1b861","6195994ee5a569f5e2ff8c7d","1111","","s","true","[[136,48],[1,270],[91,515],[338,597],[556,455],[581,196],[394,15]]","false","7","main_T2_Trial","s","img/Fire_Up_Target.gif","[""img/Fire_Down_Distractor.gif"",""img/Fire_Down_Distractor.gif"",""img/Fire_Down_Distractor.gif"",""img/Fire_Down_Distractor.gif"",""img/Fire_Down_Distractor.gif"",""img/Fire_Down_Distractor.gif"",""img/Fire_Down_Distractor.gif"",""img/Fire_Down_Distractor.gif"",""img/Fire_Down_Distractor.gif"",""img/Fire_Down_Distractor.gif"",""img/Fire_Down_Distractor.gif"",""img/Fire_Down_Distractor.gif""]","7","targetUp_distractorsDown"
"","","","","","html-keyboard-response","40","226230","0.0-14.0-0.0-0.13","5f52709068e37c52492decd4","619531dcf66c91622fa1b861","6195994ee5a569f5e2ff8c7d","null","","null","","","","","main_T1_ITI","","","","",""
"","","","","","visual-search-circle","41","228533","0.0-14.0-0.0-1.13","5f52709068e37c52492decd4","619531dcf66c91622fa1b861","6195994ee5a569f5e2ff8c7d","1300.0999999940395","","s","true","[[545,472],[587,215],[413,22],[153,38],[3,251],[77,501],[318,599]]","false","7","main_T2_Trial","s","img/Fire_Up_Target.gif","[""img/Fire_Down_Distractor.gif"",""img/Fire_Down_Distractor.gif"",""img/Fire_Down_Distractor.gif"",""img/Fire_Down_Distractor.gif"",""img/Fire_Down_Distractor.gif"",""img/Fire_Down_Distractor.gif"",""img/Fire_Down_Distractor.gif"",""img/Fire_Down_Distractor.gif"",""img/Fire_Down_Distractor.gif"",""img/Fire_Down_Distractor.gif"",""img/Fire_Down_Distractor.gif"",""img/Fire_Down_Distractor.gif""]","7","targetUp_distractorsDown"
"","","","","","html-keyboard-response","42","228535","0.0-14.0-0.0-0.14","5f52709068e37c52492decd4","619531dcf66c91622fa1b861","6195994ee5a569f5e2ff8c7d","null","","null","","","","","main_T1_ITI","","","","",""
"","","","","","visual-search-circle","43","230387","0.0-14.0-0.0-1.14","5f52709068e37c52492decd4","619531dcf66c91622fa1b861","6195994ee5a569f5e2ff8c7d","837.4000000059605","","d","true","[[586,212],[440,35],[212,13],[35,159],[13,387],[159,564],[387,586],[564,440]]","true","8","main_T2_Trial","d","img/Fire_Up_Target.gif","[""img/Fire_Down_Distractor.gif"",""img/Fire_Down_Distractor.gif"",""img/Fire_Down_Distractor.gif"",""img/Fire_Down_Distractor.gif"",""img/Fire_Down_Distractor.gif"",""img/Fire_Down_Distractor.gif"",""img/Fire_Down_Distractor.gif"",""img/Fire_Down_Distractor.gif"",""img/Fire_Down_Distractor.gif"",""img/Fire_Down_Distractor.gif"",""img/Fire_Down_Distractor.gif"",""img/Fire_Down_Distractor.gif""]","8","targetUp_distractorsDown"
"","","","","","html-keyboard-response","44","230388","0.0-14.0-0.0-0.15","5f52709068e37c52492decd4","619531dcf66c91622fa1b861","6195994ee5a569f5e2ff8c7d","null","","null","","","","","main_T1_ITI","","","","",""
"","","","","","visual-search-circle","45","233370","0.0-14.0-0.0-1.15","5f52709068e37c52492decd4","619531dcf66c91622fa1b861","6195994ee5a569f5e2ff8c7d","1972.800000011921","","s","true","[[597,263],[357,5],[37,154],[80,504],[426,571]]","false","5","main_T2_Trial","s","img/Fire_Up_Target.gif","[""img/Fire_Down_Distractor.gif"",""img/Fire_Down_Distractor.gif"",""img/Fire_Down_Distractor.gif"",""img/Fire_Down_Distractor.gif"",""img/Fire_Down_Distractor.gif"",""img/Fire_Down_Distractor.gif"",""img/Fire_Down_Distractor.gif"",""img/Fire_Down_Distractor.gif"",""img/Fire_Down_Distractor.gif"",""img/Fire_Down_Distractor.gif"",""img/Fire_Down_Distractor.gif"",""img/Fire_Down_Distractor.gif""]","5","targetUp_distractorsDown"
"","","","","","html-keyboard-response","46","233372","0.0-14.0-0.0-0.16","5f52709068e37c52492decd4","619531dcf66c91622fa1b861","6195994ee5a569f5e2ff8c7d","null","","null","","","","","main_T1_ITI","","","","",""
"","","","","","visual-search-circle","47","235500","0.0-14.0-0.0-1.16","5f52709068e37c52492decd4","619531dcf66c91622fa1b861","6195994ee5a569f5e2ff8c7d","1109.5999999940395","","d","true","[[397,583],[594,357],[496,73],[202,16],[5,242],[103,526]]","true","6","main_T2_Trial","d","img/Fire_Up_Target.gif","[""img/Fire_Down_Distractor.gif"",""img/Fire_Down_Distractor.gif"",""img/Fire_Down_Distractor.gif"",""img/Fire_Down_Distractor.gif"",""img/Fire_Down_Distractor.gif"",""img/Fire_Down_Distractor.gif"",""img/Fire_Down_Distractor.gif"",""img/Fire_Down_Distractor.gif"",""img/Fire_Down_Distractor.gif"",""img/Fire_Down_Distractor.gif"",""img/Fire_Down_Distractor.gif"",""img/Fire_Down_Distractor.gif""]","6","targetUp_distractorsDown"
"","","","","","html-keyboard-response","48","235528","0.0-14.0-0.0-0.17","5f52709068e37c52492decd4","619531dcf66c91622fa1b861","6195994ee5a569f5e2ff8c7d","null","","null","","","","","main_T1_ITI","","","","",""
"","","","","","visual-search-circle","49","237389","0.0-14.0-0.0-1.17","5f52709068e37c52492decd4","619531dcf66c91622fa1b861","6195994ee5a569f5e2ff8c7d","857.6999999880791","","d","true","[[111,533],[463,551],[589,222],[315,0],[19,192]]","true","5","main_T2_Trial","d","img/Fire_Up_Target.gif","[""img/Fire_Down_Distractor.gif"",""img/Fire_Down_Distractor.gif"",""img/Fire_Down_Distractor.gif"",""img/Fire_Down_Distractor.gif"",""img/Fire_Down_Distractor.gif"",""img/Fire_Down_Distractor.gif"",""img/Fire_Down_Distractor.gif"",""img/Fire_Down_Distractor.gif"",""img/Fire_Down_Distractor.gif"",""img/Fire_Down_Distractor.gif"",""img/Fire_Down_Distractor.gif"",""img/Fire_Down_Distractor.gif""]","5","targetUp_distractorsDown"
"","","","","","html-keyboard-response","50","237391","0.0-14.0-0.0-0.18","5f52709068e37c52492decd4","619531dcf66c91622fa1b861","6195994ee5a569f5e2ff8c7d","null","","null","","","","","main_T1_ITI","","","","",""
"","","","","","visual-search-circle","51","239519","0.0-14.0-0.0-1.18","5f52709068e37c52492decd4","619531dcf66c91622fa1b861","6195994ee5a569f5e2ff8c7d","1117.9000000059605","","s","true","[[564,159],[310,0],[45,141],[35,440],[289,599],[554,458]]","false","6","main_T2_Trial","s","img/Fire_Up_Target.gif","[""img/Fire_Down_Distractor.gif"",""img/Fire_Down_Distractor.gif"",""img/Fire_Down_Distractor.gif"",""img/Fire_Down_Distractor.gif"",""img/Fire_Down_Distractor.gif"",""img/Fire_Down_Distractor.gif"",""img/Fire_Down_Distractor.gif"",""img/Fire_Down_Distractor.gif"",""img/Fire_Down_Distractor.gif"",""img/Fire_Down_Distractor.gif"",""img/Fire_Down_Distractor.gif"",""img/Fire_Down_Distractor.gif""]","6","targetUp_distractorsDown"
"","","","","","html-keyboard-response","52","249677","0.0-14.0-0.0-0.19","5f52709068e37c52492decd4","619531dcf66c91622fa1b861","6195994ee5a569f5e2ff8c7d","10158.399999976158","Wow! You've completed 20 out of 160 trials! </p> <p>  </p><p> Take a quick break, then press any key when you're ready to continue."," ","","","","","main_T1_ITI","","","","",""
"","","","","","visual-search-circle","53","251847","0.0-14.0-0.0-1.19","5f52709068e37c52492decd4","619531dcf66c91622fa1b861","6195994ee5a569f5e2ff8c7d","1164.800000011921","","s","true","[[247,595],[472,545],[595,352],[545,127],[352,4],[127,54],[4,247],[54,472]]","false","8","main_T2_Trial","s","img/Fire_Up_Target.gif","[""img/Fire_Down_Distractor.gif"",""img/Fire_Down_Distractor.gif"",""img/Fire_Down_Distractor.gif"",""img/Fire_Down_Distractor.gif"",""img/Fire_Down_Distractor.gif"",""img/Fire_Down_Distractor.gif"",""img/Fire_Down_Distractor.gif"",""img/Fire_Down_Distractor.gif"",""img/Fire_Down_Distractor.gif"",""img/Fire_Down_Distractor.gif"",""img/Fire_Down_Distractor.gif"",""img/Fire_Down_Distractor.gif""]","8","targetUp_distractorsDown"
"","","","","","html-keyboard-response","54","251849","0.0-14.0-0.0-0.20","5f52709068e37c52492decd4","619531dcf66c91622fa1b861","6195994ee5a569f5e2ff8c7d","null","","null","","","","","main_T1_ITI","","","","",""
"","","","","","visual-search-circle","55","254158","0.0-14.0-0.0-1.20","5f52709068e37c52492decd4","619531dcf66c91622fa1b861","6195994ee5a569f5e2ff8c7d","1299.5","","s","true","[[598,268],[362,6],[40,150],[77,500],[422,574]]","false","5","main_T2_Trial","s","img/Fire_Up_Target.gif","[""img/Fire_Down_Distractor.gif"",""img/Fire_Down_Distractor.gif"",""img/Fire_Down_Distractor.gif"",""img/Fire_Down_Distractor.gif"",""img/Fire_Down_Distractor.gif"",""img/Fire_Down_Distractor.gif"",""img/Fire_Down_Distractor.gif"",""img/Fire_Down_Distractor.gif"",""img/Fire_Down_Distractor.gif"",""img/Fire_Down_Distractor.gif"",""img/Fire_Down_Distractor.gif"",""img/Fire_Down_Distractor.gif""]","5","targetUp_distractorsDown"
"","","","","","html-keyboard-response","56","254172","0.0-14.0-0.0-0.21","5f52709068e37c52492decd4","619531dcf66c91622fa1b861","6195994ee5a569f5e2ff8c7d","null","","null","","","","","main_T1_ITI","","","","",""
"","","","","","visual-search-circle","57","255907","0.0-14.0-0.0-1.21","5f52709068e37c52492decd4","619531dcf66c91622fa1b861","6195994ee5a569f5e2ff8c7d","727.6999999880791","","d","true","[[299,600],[512,512],[600,300],[512,87],[300,0],[87,87],[0,299],[87,512]]","true","8","main_T2_Trial","d","img/Fire_Up_Target.gif","[""img/Fire_Down_Distractor.gif"",""img/Fire_Down_Distractor.gif"",""img/Fire_Down_Distractor.gif"",""img/Fire_Down_Distractor.gif"",""img/Fire_Down_Distractor.gif"",""img/Fire_Down_Distractor.gif"",""img/Fire_Down_Distractor.gif"",""img/Fire_Down_Distractor.gif"",""img/Fire_Down_Distractor.gif"",""img/Fire_Down_Distractor.gif"",""img/Fire_Down_Distractor.gif"",""img/Fire_Down_Distractor.gif""]","8","targetUp_distractorsDown"
"","","","","","html-keyboard-response","58","255910","0.0-14.0-0.0-0.22","5f52709068e37c52492decd4","619531dcf66c91622fa1b861","6195994ee5a569f5e2ff8c7d","null","","null","","","","","main_T1_ITI","","","","",""
"","","","","","visual-search-circle","59","257751","0.0-14.0-0.0-1.22","5f52709068e37c52492decd4","619531dcf66c91622fa1b861","6195994ee5a569f5e2ff8c7d","835.6999999880791","","d","true","[[18,197],[44,456],[262,597],[509,514],[598,270],[462,47],[204,15]]","true","7","main_T2_Trial","d","img/Fire_Up_Target.gif","[""img/Fire_Down_Distractor.gif"",""img/Fire_Down_Distractor.gif"",""img/Fire_Down_Distractor.gif"",""img/Fire_Down_Distractor.gif"",""img/Fire_Down_Distractor.gif"",""img/Fire_Down_Distractor.gif"",""img/Fire_Down_Distractor.gif"",""img/Fire_Down_Distractor.gif"",""img/Fire_Down_Distractor.gif"",""img/Fire_Down_Distractor.gif"",""img/Fire_Down_Distractor.gif"",""img/Fire_Down_Distractor.gif""]","7","targetUp_distractorsDown"
"","","","","","html-keyboard-response","60","257760","0.0-14.0-0.0-0.23","5f52709068e37c52492decd4","619531dcf66c91622fa1b861","6195994ee5a569f5e2ff8c7d","null","","null","","","","","main_T1_ITI","","","","",""
"","","","","","visual-search-circle","61","261786","0.0-14.0-0.0-1.23","5f52709068e37c52492decd4","619531dcf66c91622fa1b861","6195994ee5a569f5e2ff8c7d","3017.5","","d","true","[[247,4],[54,127],[4,352],[127,545],[352,595],[545,472],[595,247],[472,54]]","true","8","main_T2_Trial","d","img/Fire_Down_Target.gif","[""img/Fire_Up_Distractor.gif"",""img/Fire_Up_Distractor.gif"",""img/Fire_Up_Distractor.gif"",""img/Fire_Up_Distractor.gif"",""img/Fire_Up_Distractor.gif"",""img/Fire_Up_Distractor.gif"",""img/Fire_Up_Distractor.gif"",""img/Fire_Up_Distractor.gif"",""img/Fire_Up_Distractor.gif"",""img/Fire_Up_Distractor.gif"",""img/Fire_Up_Distractor.gif"",""img/Fire_Up_Distractor.gif""]","8","targetDown_distractorsUp"
"","","","","","html-keyboard-response","62","261788","0.0-14.0-0.0-0.24","5f52709068e37c52492decd4","619531dcf66c91622fa1b861","6195994ee5a569f5e2ff8c7d","null","","null","","","","","main_T1_ITI","","","","",""
"","","","","","visual-search-circle","63","263605","0.0-14.0-0.0-1.24","5f52709068e37c52492decd4","619531dcf66c91622fa1b861","6195994ee5a569f5e2ff8c7d","808.2000000178814","","s","true","[[436,32],[207,14],[32,163],[14,392],[163,567],[392,585],[567,436],[585,207]]","false","8","main_T2_Trial","s","img/Fire_Down_Target.gif","[""img/Fire_Up_Distractor.gif"",""img/Fire_Up_Distractor.gif"",""img/Fire_Up_Distractor.gif"",""img/Fire_Up_Distractor.gif"",""img/Fire_Up_Distractor.gif"",""img/Fire_Up_Distractor.gif"",""img/Fire_Up_Distractor.gif"",""img/Fire_Up_Distractor.gif"",""img/Fire_Up_Distractor.gif"",""img/Fire_Up_Distractor.gif"",""img/Fire_Up_Distractor.gif"",""img/Fire_Up_Distractor.gif""]","8","targetDown_distractorsUp"
"","","","","","html-keyboard-response","64","263607","0.0-14.0-0.0-0.25","5f52709068e37c52492decd4","619531dcf66c91622fa1b861","6195994ee5a569f5e2ff8c7d","null","","null","","","","","main_T1_ITI","","","","",""
"","","","","","visual-search-circle","65","266112","0.0-14.0-0.0-1.25","5f52709068e37c52492decd4","619531dcf66c91622fa1b861","6195994ee5a569f5e2ff8c7d","1490.0999999940395","","d","true","[[588,382],[467,51],[115,63],[18,402],[310,599]]","true","5","main_T2_Trial","d","img/Fire_Up_Target.gif","[""img/Fire_Down_Distractor.gif"",""img/Fire_Down_Distractor.gif"",""img/Fire_Down_Distractor.gif"",""img/Fire_Down_Distractor.gif"",""img/Fire_Down_Distractor.gif"",""img/Fire_Down_Distractor.gif"",""img/Fire_Down_Distractor.gif"",""img/Fire_Down_Distractor.gif"",""img/Fire_Down_Distractor.gif"",""img/Fire_Down_Distractor.gif"",""img/Fire_Down_Distractor.gif"",""img/Fire_Down_Distractor.gif""]","5","targetUp_distractorsDown"
"","","","","","html-keyboard-response","66","266116","0.0-14.0-0.0-0.26","5f52709068e37c52492decd4","619531dcf66c91622fa1b861","6195994ee5a569f5e2ff8c7d","null","","null","","","","","main_T1_ITI","","","","",""
"","","","","","visual-search-circle","67","269140","0.0-14.0-0.0-1.26","5f52709068e37c52492decd4","619531dcf66c91622fa1b861","6195994ee5a569f5e2ff8c7d","2009.2999999821186","","d","true","[[37,154],[42,454],[305,599],[562,445],[557,145],[294,0]]","true","6","main_T2_Trial","d","img/Fire_Down_Target.gif","[""img/Fire_Up_Distractor.gif"",""img/Fire_Up_Distractor.gif"",""img/Fire_Up_Distractor.gif"",""img/Fire_Up_Distractor.gif"",""img/Fire_Up_Distractor.gif"",""img/Fire_Up_Distractor.gif"",""img/Fire_Up_Distractor.gif"",""img/Fire_Up_Distractor.gif"",""img/Fire_Up_Distractor.gif"",""img/Fire_Up_Distractor.gif"",""img/Fire_Up_Distractor.gif"",""img/Fire_Up_Distractor.gif""]","6","targetDown_distractorsUp"
"","","","","","html-keyboard-response","68","269142","0.0-14.0-0.0-0.27","5f52709068e37c52492decd4","619531dcf66c91622fa1b861","6195994ee5a569f5e2ff8c7d","null","","null","","","","","main_T1_ITI","","","","",""
"","","","","","visual-search-circle","69","271348","0.0-14.0-0.0-1.27","5f52709068e37c52492decd4","619531dcf66c91622fa1b861","6195994ee5a569f5e2ff8c7d","1191.300000011921","","d","true","[[13,212],[52,469],[278,599],[520,503],[596,254],[449,39],[189,21]]","true","7","main_T2_Trial","d","img/Fire_Down_Target.gif","[""img/Fire_Up_Distractor.gif"",""img/Fire_Up_Distractor.gif"",""img/Fire_Up_Distractor.gif"",""img/Fire_Up_Distractor.gif"",""img/Fire_Up_Distractor.gif"",""img/Fire_Up_Distractor.gif"",""img/Fire_Up_Distractor.gif"",""img/Fire_Up_Distractor.gif"",""img/Fire_Up_Distractor.gif"",""img/Fire_Up_Distractor.gif"",""img/Fire_Up_Distractor.gif"",""img/Fire_Up_Distractor.gif""]","7","targetDown_distractorsUp"
"","","","","","html-keyboard-response","70","271351","0.0-14.0-0.0-0.28","5f52709068e37c52492decd4","619531dcf66c91622fa1b861","6195994ee5a569f5e2ff8c7d","null","","null","","","","","main_T1_ITI","","","","",""
"","","","","","visual-search-circle","71","273308","0.0-14.0-0.0-1.28","5f52709068e37c52492decd4","619531dcf66c91622fa1b861","6195994ee5a569f5e2ff8c7d","941.3000000119209","","s","true","[[336,2],[115,63],[2,263],[63,484],[263,597],[484,536],[597,336],[536,115]]","false","8","main_T2_Trial","s","img/Fire_Down_Target.gif","[""img/Fire_Up_Distractor.gif"",""img/Fire_Up_Distractor.gif"",""img/Fire_Up_Distractor.gif"",""img/Fire_Up_Distractor.gif"",""img/Fire_Up_Distractor.gif"",""img/Fire_Up_Distractor.gif"",""img/Fire_Up_Distractor.gif"",""img/Fire_Up_Distractor.gif"",""img/Fire_Up_Distractor.gif"",""img/Fire_Up_Distractor.gif"",""img/Fire_Up_Distractor.gif"",""img/Fire_Up_Distractor.gif""]","8","targetDown_distractorsUp"
"","","","","","html-keyboard-response","72","273310","0.0-14.0-0.0-0.29","5f52709068e37c52492decd4","619531dcf66c91622fa1b861","6195994ee5a569f5e2ff8c7d","null","","null","","","","","main_T1_ITI","","","","",""
"","","","","","visual-search-circle","73","275503","0.0-14.0-0.0-1.29","5f52709068e37c52492decd4","619531dcf66c91622fa1b861","6195994ee5a569f5e2ff8c7d","1180.2000000178814","","s","true","[[522,99],[282,0],[54,127],[12,384],[186,577],[446,562],[595,349]]","false","7","main_T2_Trial","s","img/Fire_Down_Target.gif","[""img/Fire_Up_Distractor.gif"",""img/Fire_Up_Distractor.gif"",""img/Fire_Up_Distractor.gif"",""img/Fire_Up_Distractor.gif"",""img/Fire_Up_Distractor.gif"",""img/Fire_Up_Distractor.gif"",""img/Fire_Up_Distractor.gif"",""img/Fire_Up_Distractor.gif"",""img/Fire_Up_Distractor.gif"",""img/Fire_Up_Distractor.gif"",""img/Fire_Up_Distractor.gif"",""img/Fire_Up_Distractor.gif""]","7","targetDown_distractorsUp"
"","","","","","html-keyboard-response","74","275505","0.0-14.0-0.0-0.30","5f52709068e37c52492decd4","619531dcf66c91622fa1b861","6195994ee5a569f5e2ff8c7d","null","","null","","","","","main_T1_ITI","","","","",""
"","","","","","visual-search-circle","75","277809","0.0-14.0-0.0-1.30","5f52709068e37c52492decd4","619531dcf66c91622fa1b861","6195994ee5a569f5e2ff8c7d","1293.199999988079","","s","true","[[504,519],[599,310],[519,95],[310,0],[95,80],[0,289],[80,504],[289,599]]","false","8","main_T2_Trial","s","img/Fire_Down_Target.gif","[""img/Fire_Up_Distractor.gif"",""img/Fire_Up_Distractor.gif"",""img/Fire_Up_Distractor.gif"",""img/Fire_Up_Distractor.gif"",""img/Fire_Up_Distractor.gif"",""img/Fire_Up_Distractor.gif"",""img/Fire_Up_Distractor.gif"",""img/Fire_Up_Distractor.gif"",""img/Fire_Up_Distractor.gif"",""img/Fire_Up_Distractor.gif"",""img/Fire_Up_Distractor.gif"",""img/Fire_Up_Distractor.gif""]","8","targetDown_distractorsUp"
"","","","","","html-keyboard-response","76","277820","0.0-14.0-0.0-0.31","5f52709068e37c52492decd4","619531dcf66c91622fa1b861","6195994ee5a569f5e2ff8c7d","null","","null","","","","","main_T1_ITI","","","","",""
"","","","","","visual-search-circle","77","280164","0.0-14.0-0.0-1.31","5f52709068e37c52492decd4","619531dcf66c91622fa1b861","6195994ee5a569f5e2ff8c7d","1329.199999988079","","d","true","[[123,57],[1,331],[177,574],[476,542],[598,268],[422,25]]","true","6","main_T2_Trial","d","img/Fire_Up_Target.gif","[""img/Fire_Down_Distractor.gif"",""img/Fire_Down_Distractor.gif"",""img/Fire_Down_Distractor.gif"",""img/Fire_Down_Distractor.gif"",""img/Fire_Down_Distractor.gif"",""img/Fire_Down_Distractor.gif"",""img/Fire_Down_Distractor.gif"",""img/Fire_Down_Distractor.gif"",""img/Fire_Down_Distractor.gif"",""img/Fire_Down_Distractor.gif"",""img/Fire_Down_Distractor.gif"",""img/Fire_Down_Distractor.gif""]","6","targetUp_distractorsDown"
"","","","","","html-keyboard-response","78","280166","0.0-14.0-0.0-0.32","5f52709068e37c52492decd4","619531dcf66c91622fa1b861","6195994ee5a569f5e2ff8c7d","null","","null","","","","","main_T1_ITI","","","","",""
"","","","","","visual-search-circle","79","281988","0.0-14.0-0.0-1.32","5f52709068e37c52492decd4","619531dcf66c91622fa1b861","6195994ee5a569f5e2ff8c7d","816.5999999940395","","d","true","[[19,407],[315,599],[589,377],[463,48],[111,66]]","true","5","main_T2_Trial","d","img/Fire_Up_Target.gif","[""img/Fire_Down_Distractor.gif"",""img/Fire_Down_Distractor.gif"",""img/Fire_Down_Distractor.gif"",""img/Fire_Down_Distractor.gif"",""img/Fire_Down_Distractor.gif"",""img/Fire_Down_Distractor.gif"",""img/Fire_Down_Distractor.gif"",""img/Fire_Down_Distractor.gif"",""img/Fire_Down_Distractor.gif"",""img/Fire_Down_Distractor.gif"",""img/Fire_Down_Distractor.gif"",""img/Fire_Down_Distractor.gif""]","5","targetUp_distractorsDown"
"","","","","","html-keyboard-response","80","281990","0.0-14.0-0.0-0.33","5f52709068e37c52492decd4","619531dcf66c91622fa1b861","6195994ee5a569f5e2ff8c7d","null","","null","","","","","main_T1_ITI","","","","",""
"","","","","","visual-search-circle","81","283921","0.0-14.0-0.0-1.33","5f52709068e37c52492decd4","619531dcf66c91622fa1b861","6195994ee5a569f5e2ff8c7d","921.0999999940395","","d","true","[[192,19],[13,209],[50,467],[275,598],[518,505],[596,257],[451,41]]","true","7","main_T2_Trial","d","img/Fire_Down_Target.gif","[""img/Fire_Up_Distractor.gif"",""img/Fire_Up_Distractor.gif"",""img/Fire_Up_Distractor.gif"",""img/Fire_Up_Distractor.gif"",""img/Fire_Up_Distractor.gif"",""img/Fire_Up_Distractor.gif"",""img/Fire_Up_Distractor.gif"",""img/Fire_Up_Distractor.gif"",""img/Fire_Up_Distractor.gif"",""img/Fire_Up_Distractor.gif"",""img/Fire_Up_Distractor.gif"",""img/Fire_Up_Distractor.gif""]","7","targetDown_distractorsUp"
"","","","","","html-keyboard-response","82","283930","0.0-14.0-0.0-0.34","5f52709068e37c52492decd4","619531dcf66c91622fa1b861","6195994ee5a569f5e2ff8c7d","null","","null","","","","","main_T1_ITI","","","","",""
"","","","","","visual-search-circle","83","286862","0.0-14.0-0.0-1.34","5f52709068e37c52492decd4","619531dcf66c91622fa1b861","6195994ee5a569f5e2ff8c7d","1921.199999988079","","d","true","[[1,326],[232,592],[557,454],[526,103],[182,23]]","true","5","main_T2_Trial","d","img/Fire_Up_Target.gif","[""img/Fire_Down_Distractor.gif"",""img/Fire_Down_Distractor.gif"",""img/Fire_Down_Distractor.gif"",""img/Fire_Down_Distractor.gif"",""img/Fire_Down_Distractor.gif"",""img/Fire_Down_Distractor.gif"",""img/Fire_Down_Distractor.gif"",""img/Fire_Down_Distractor.gif"",""img/Fire_Down_Distractor.gif"",""img/Fire_Down_Distractor.gif"",""img/Fire_Down_Distractor.gif"",""img/Fire_Down_Distractor.gif""]","5","targetUp_distractorsDown"
"","","","","","html-keyboard-response","84","286864","0.0-14.0-0.0-0.35","5f52709068e37c52492decd4","619531dcf66c91622fa1b861","6195994ee5a569f5e2ff8c7d","null","","null","","","","","main_T1_ITI","","","","",""
"","","","","","visual-search-circle","85","289368","0.0-14.0-0.0-1.35","5f52709068e37c52492decd4","619531dcf66c91622fa1b861","6195994ee5a569f5e2ff8c7d","1490.300000011921","","d","true","[[599,279],[496,73],[279,0],[73,103],[0,320],[103,526],[320,599],[526,496]]","true","8","main_T2_Trial","d","img/Fire_Down_Target.gif","[""img/Fire_Up_Distractor.gif"",""img/Fire_Up_Distractor.gif"",""img/Fire_Up_Distractor.gif"",""img/Fire_Up_Distractor.gif"",""img/Fire_Up_Distractor.gif"",""img/Fire_Up_Distractor.gif"",""img/Fire_Up_Distractor.gif"",""img/Fire_Up_Distractor.gif"",""img/Fire_Up_Distractor.gif"",""img/Fire_Up_Distractor.gif"",""img/Fire_Up_Distractor.gif"",""img/Fire_Up_Distractor.gif""]","8","targetDown_distractorsUp"
"","","","","","html-keyboard-response","86","289370","0.0-14.0-0.0-0.36","5f52709068e37c52492decd4","619531dcf66c91622fa1b861","6195994ee5a569f5e2ff8c7d","null","","null","","","","","main_T1_ITI","","","","",""
"","","","","","visual-search-circle","87","291424","0.0-14.0-0.0-1.36","5f52709068e37c52492decd4","619531dcf66c91622fa1b861","6195994ee5a569f5e2ff8c7d","1048.0999999940395","","d","true","[[559,150],[377,10],[150,40],[10,222],[40,450],[222,589],[450,559],[589,377]]","true","8","main_T2_Trial","d","img/Fire_Down_Target.gif","[""img/Fire_Up_Distractor.gif"",""img/Fire_Up_Distractor.gif"",""img/Fire_Up_Distractor.gif"",""img/Fire_Up_Distractor.gif"",""img/Fire_Up_Distractor.gif"",""img/Fire_Up_Distractor.gif"",""img/Fire_Up_Distractor.gif"",""img/Fire_Up_Distractor.gif"",""img/Fire_Up_Distractor.gif"",""img/Fire_Up_Distractor.gif"",""img/Fire_Up_Distractor.gif"",""img/Fire_Up_Distractor.gif""]","8","targetDown_distractorsUp"
"","","","","","html-keyboard-response","88","291426","0.0-14.0-0.0-0.37","5f52709068e37c52492decd4","619531dcf66c91622fa1b861","6195994ee5a569f5e2ff8c7d","null","","null","","","","","main_T1_ITI","","","","",""
"","","","","","visual-search-circle","89","293417","0.0-14.0-0.0-1.37","5f52709068e37c52492decd4","619531dcf66c91622fa1b861","6195994ee5a569f5e2ff8c7d","975.3000000119209","","s","true","[[326,1],[82,93],[2,341],[146,557],[406,580],[585,391],[549,134]]","false","7","main_T2_Trial","s","img/Fire_Down_Target.gif","[""img/Fire_Up_Distractor.gif"",""img/Fire_Up_Distractor.gif"",""img/Fire_Up_Distractor.gif"",""img/Fire_Up_Distractor.gif"",""img/Fire_Up_Distractor.gif"",""img/Fire_Up_Distractor.gif"",""img/Fire_Up_Distractor.gif"",""img/Fire_Up_Distractor.gif"",""img/Fire_Up_Distractor.gif"",""img/Fire_Up_Distractor.gif"",""img/Fire_Up_Distractor.gif"",""img/Fire_Up_Distractor.gif""]","7","targetDown_distractorsUp"
"","","","","","html-keyboard-response","90","293419","0.0-14.0-0.0-0.38","5f52709068e37c52492decd4","619531dcf66c91622fa1b861","6195994ee5a569f5e2ff8c7d","null","","null","","","","","main_T1_ITI","","","","",""
"","","","","","visual-search-circle","91","296445","0.0-14.0-0.0-1.38","5f52709068e37c52492decd4","619531dcf66c91622fa1b861","6195994ee5a569f5e2ff8c7d","2021.5999999940395","","s","true","[[581,402],[529,107],[247,4],[18,197],[70,492],[352,595]]","false","6","main_T2_Trial","s","img/Fire_Up_Target.gif","[""img/Fire_Down_Distractor.gif"",""img/Fire_Down_Distractor.gif"",""img/Fire_Down_Distractor.gif"",""img/Fire_Down_Distractor.gif"",""img/Fire_Down_Distractor.gif"",""img/Fire_Down_Distractor.gif"",""img/Fire_Down_Distractor.gif"",""img/Fire_Down_Distractor.gif"",""img/Fire_Down_Distractor.gif"",""img/Fire_Down_Distractor.gif"",""img/Fire_Down_Distractor.gif"",""img/Fire_Down_Distractor.gif""]","6","targetUp_distractorsDown"
"","","","","","html-keyboard-response","92","320963","0.0-14.0-0.0-0.39","5f52709068e37c52492decd4","619531dcf66c91622fa1b861","6195994ee5a569f5e2ff8c7d","24517.30000001192","Wow! You've completed 40 out of 160 trials! </p> <p>  </p><p> Take a quick break, then press any key when you're ready to continue.","d","","","","","main_T1_ITI","","","","",""
"","","","","","visual-search-circle","93","323021","0.0-14.0-0.0-1.39","5f52709068e37c52492decd4","619531dcf66c91622fa1b861","6195994ee5a569f5e2ff8c7d","1048.800000011921","","s","true","[[352,4],[4,247],[247,595],[595,352]]","false","4","main_T2_Trial","s","img/Fire_Up_Target.gif","[""img/Fire_Down_Distractor.gif"",""img/Fire_Down_Distractor.gif"",""img/Fire_Down_Distractor.gif"",""img/Fire_Down_Distractor.gif"",""img/Fire_Down_Distractor.gif"",""img/Fire_Down_Distractor.gif"",""img/Fire_Down_Distractor.gif"",""img/Fire_Down_Distractor.gif"",""img/Fire_Down_Distractor.gif"",""img/Fire_Down_Distractor.gif"",""img/Fire_Down_Distractor.gif"",""img/Fire_Down_Distractor.gif""]","4","targetUp_distractorsDown"
"","","","","","html-keyboard-response","94","323023","0.0-14.0-0.0-0.40","5f52709068e37c52492decd4","619531dcf66c91622fa1b861","6195994ee5a569f5e2ff8c7d","null","","null","","","","","main_T1_ITI","","","","",""
"","","","","","visual-search-circle","95","324812","0.0-14.0-0.0-1.40","5f52709068e37c52492decd4","619531dcf66c91622fa1b861","6195994ee5a569f5e2ff8c7d","773.5","","d","true","[[87,87],[0,299],[87,512],[299,600],[512,512],[600,300],[512,87],[300,0]]","true","8","main_T2_Trial","d","img/Fire_Down_Target.gif","[""img/Fire_Up_Distractor.gif"",""img/Fire_Up_Distractor.gif"",""img/Fire_Up_Distractor.gif"",""img/Fire_Up_Distractor.gif"",""img/Fire_Up_Distractor.gif"",""img/Fire_Up_Distractor.gif"",""img/Fire_Up_Distractor.gif"",""img/Fire_Up_Distractor.gif"",""img/Fire_Up_Distractor.gif"",""img/Fire_Up_Distractor.gif"",""img/Fire_Up_Distractor.gif"",""img/Fire_Up_Distractor.gif""]","8","targetDown_distractorsUp"
"","","","","","html-keyboard-response","96","324814","0.0-14.0-0.0-0.41","5f52709068e37c52492decd4","619531dcf66c91622fa1b861","6195994ee5a569f5e2ff8c7d","null","","null","","","","","main_T1_ITI","","","","",""
"","","","","","visual-search-circle","97","326495","0.0-14.0-0.0-1.41","5f52709068e37c52492decd4","619531dcf66c91622fa1b861","6195994ee5a569f5e2ff8c7d","664.6000000238419","","s","true","[[397,583],[569,431],[583,202],[431,30],[202,16],[30,168],[16,397],[168,569]]","false","8","main_T2_Trial","s","img/Fire_Down_Target.gif","[""img/Fire_Up_Distractor.gif"",""img/Fire_Up_Distractor.gif"",""img/Fire_Up_Distractor.gif"",""img/Fire_Up_Distractor.gif"",""img/Fire_Up_Distractor.gif"",""img/Fire_Up_Distractor.gif"",""img/Fire_Up_Distractor.gif"",""img/Fire_Up_Distractor.gif"",""img/Fire_Up_Distractor.gif"",""img/Fire_Up_Distractor.gif"",""img/Fire_Up_Distractor.gif"",""img/Fire_Up_Distractor.gif""]","8","targetDown_distractorsUp"
"","","","","","html-keyboard-response","98","326498","0.0-14.0-0.0-0.42","5f52709068e37c52492decd4","619531dcf66c91622fa1b861","6195994ee5a569f5e2ff8c7d","null","","null","","","","","main_T1_ITI","","","","",""
"","","","","","visual-search-circle","99","328524","0.0-14.0-0.0-1.42","5f52709068e37c52492decd4","619531dcf66c91622fa1b861","6195994ee5a569f5e2ff8c7d","1013.2000000178814","","s","true","[[387,13],[130,52],[0,278],[96,520],[345,596],[560,449],[578,189]]","false","7","main_T2_Trial","s","img/Fire_Up_Target.gif","[""img/Fire_Down_Distractor.gif"",""img/Fire_Down_Distractor.gif"",""img/Fire_Down_Distractor.gif"",""img/Fire_Down_Distractor.gif"",""img/Fire_Down_Distractor.gif"",""img/Fire_Down_Distractor.gif"",""img/Fire_Down_Distractor.gif"",""img/Fire_Down_Distractor.gif"",""img/Fire_Down_Distractor.gif"",""img/Fire_Down_Distractor.gif"",""img/Fire_Down_Distractor.gif"",""img/Fire_Down_Distractor.gif""]","7","targetUp_distractorsDown"
"","","","","","html-keyboard-response","100","328527","0.0-14.0-0.0-0.43","5f52709068e37c52492decd4","619531dcf66c91622fa1b861","6195994ee5a569f5e2ff8c7d","null","","null","","","","","main_T1_ITI","","","","",""
"","","","","","visual-search-circle","101","330329","0.0-14.0-0.0-1.43","5f52709068e37c52492decd4","619531dcf66c91622fa1b861","6195994ee5a569f5e2ff8c7d","795.5","","s","true","[[0,305],[212,586],[545,472],[539,119],[202,16]]","false","5","main_T2_Trial","s","img/Fire_Up_Target.gif","[""img/Fire_Down_Distractor.gif"",""img/Fire_Down_Distractor.gif"",""img/Fire_Down_Distractor.gif"",""img/Fire_Down_Distractor.gif"",""img/Fire_Down_Distractor.gif"",""img/Fire_Down_Distractor.gif"",""img/Fire_Down_Distractor.gif"",""img/Fire_Down_Distractor.gif"",""img/Fire_Down_Distractor.gif"",""img/Fire_Down_Distractor.gif"",""img/Fire_Down_Distractor.gif"",""img/Fire_Down_Distractor.gif""]","5","targetUp_distractorsDown"
"","","","","","html-keyboard-response","102","330331","0.0-14.0-0.0-0.44","5f52709068e37c52492decd4","619531dcf66c91622fa1b861","6195994ee5a569f5e2ff8c7d","null","","null","","","","","main_T1_ITI","","","","",""
"","","","","","visual-search-circle","103","333001","0.0-14.0-0.0-1.44","5f52709068e37c52492decd4","619531dcf66c91622fa1b861","6195994ee5a569f5e2ff8c7d","1666.300000011921","","s","true","[[115,63],[2,341],[187,578],[484,536],[597,258],[412,21]]","false","6","main_T2_Trial","s","img/Fire_Down_Target.gif","[""img/Fire_Up_Distractor.gif"",""img/Fire_Up_Distractor.gif"",""img/Fire_Up_Distractor.gif"",""img/Fire_Up_Distractor.gif"",""img/Fire_Up_Distractor.gif"",""img/Fire_Up_Distractor.gif"",""img/Fire_Up_Distractor.gif"",""img/Fire_Up_Distractor.gif"",""img/Fire_Up_Distractor.gif"",""img/Fire_Up_Distractor.gif"",""img/Fire_Up_Distractor.gif"",""img/Fire_Up_Distractor.gif""]","6","targetDown_distractorsUp"
"","","","","","html-keyboard-response","104","333003","0.0-14.0-0.0-0.45","5f52709068e37c52492decd4","619531dcf66c91622fa1b861","6195994ee5a569f5e2ff8c7d","null","","null","","","","","main_T1_ITI","","","","",""
"","","","","","visual-search-circle","105","335135","0.0-14.0-0.0-1.45","5f52709068e37c52492decd4","619531dcf66c91622fa1b861","6195994ee5a569f5e2ff8c7d","1125","","d","true","[[30,431],[234,592],[488,533],[599,298],[485,64],[231,7],[29,171]]","true","7","main_T2_Trial","d","img/Fire_Up_Target.gif","[""img/Fire_Down_Distractor.gif"",""img/Fire_Down_Distractor.gif"",""img/Fire_Down_Distractor.gif"",""img/Fire_Down_Distractor.gif"",""img/Fire_Down_Distractor.gif"",""img/Fire_Down_Distractor.gif"",""img/Fire_Down_Distractor.gif"",""img/Fire_Down_Distractor.gif"",""img/Fire_Down_Distractor.gif"",""img/Fire_Down_Distractor.gif"",""img/Fire_Down_Distractor.gif"",""img/Fire_Down_Distractor.gif""]","7","targetUp_distractorsDown"
"","","","","","html-keyboard-response","106","335137","0.0-14.0-0.0-0.46","5f52709068e37c52492decd4","619531dcf66c91622fa1b861","6195994ee5a569f5e2ff8c7d","null","","null","","","","","main_T1_ITI","","","","",""
"","","","","","visual-search-circle","107","337045","0.0-14.0-0.0-1.46","5f52709068e37c52492decd4","619531dcf66c91622fa1b861","6195994ee5a569f5e2ff8c7d","892.5","","s","true","[[30,431],[341,597],[595,352],[440,35],[91,84]]","false","5","main_T2_Trial","s","img/Fire_Down_Target.gif","[""img/Fire_Up_Distractor.gif"",""img/Fire_Up_Distractor.gif"",""img/Fire_Up_Distractor.gif"",""img/Fire_Up_Distractor.gif"",""img/Fire_Up_Distractor.gif"",""img/Fire_Up_Distractor.gif"",""img/Fire_Up_Distractor.gif"",""img/Fire_Up_Distractor.gif"",""img/Fire_Up_Distractor.gif"",""img/Fire_Up_Distractor.gif"",""img/Fire_Up_Distractor.gif"",""img/Fire_Up_Distractor.gif""]","5","targetDown_distractorsUp"
"","","","","","html-keyboard-response","108","337047","0.0-14.0-0.0-0.47","5f52709068e37c52492decd4","619531dcf66c91622fa1b861","6195994ee5a569f5e2ff8c7d","null","","null","","","","","main_T1_ITI","","","","",""
"","","","","","visual-search-circle","109","340237","0.0-14.0-0.0-1.47","5f52709068e37c52492decd4","619531dcf66c91622fa1b861","6195994ee5a569f5e2ff8c7d","2181.199999988079","","d","true","[[504,80],[80,95],[95,519],[519,504]]","true","4","main_T2_Trial","d","img/Fire_Down_Target.gif","[""img/Fire_Up_Distractor.gif"",""img/Fire_Up_Distractor.gif"",""img/Fire_Up_Distractor.gif"",""img/Fire_Up_Distractor.gif"",""img/Fire_Up_Distractor.gif"",""img/Fire_Up_Distractor.gif"",""img/Fire_Up_Distractor.gif"",""img/Fire_Up_Distractor.gif"",""img/Fire_Up_Distractor.gif"",""img/Fire_Up_Distractor.gif"",""img/Fire_Up_Distractor.gif"",""img/Fire_Up_Distractor.gif""]","4","targetDown_distractorsUp"
"","","","","","html-keyboard-response","110","340239","0.0-14.0-0.0-0.48","5f52709068e37c52492decd4","619531dcf66c91622fa1b861","6195994ee5a569f5e2ff8c7d","null","","null","","","","","main_T1_ITI","","","","",""
"","","","","","visual-search-circle","111","342668","0.0-14.0-0.0-1.48","5f52709068e37c52492decd4","619531dcf66c91622fa1b861","6195994ee5a569f5e2ff8c7d","1419.4000000059605","","d","true","[[48,463],[315,599],[567,436],[551,136],[284,0],[32,163]]","true","6","main_T2_Trial","d","img/Fire_Down_Target.gif","[""img/Fire_Up_Distractor.gif"",""img/Fire_Up_Distractor.gif"",""img/Fire_Up_Distractor.gif"",""img/Fire_Up_Distractor.gif"",""img/Fire_Up_Distractor.gif"",""img/Fire_Up_Distractor.gif"",""img/Fire_Up_Distractor.gif"",""img/Fire_Up_Distractor.gif"",""img/Fire_Up_Distractor.gif"",""img/Fire_Up_Distractor.gif"",""img/Fire_Up_Distractor.gif"",""img/Fire_Up_Distractor.gif""]","6","targetDown_distractorsUp"
"","","","","","html-keyboard-response","112","342670","0.0-14.0-0.0-0.49","5f52709068e37c52492decd4","619531dcf66c91622fa1b861","6195994ee5a569f5e2ff8c7d","null","","null","","","","","main_T1_ITI","","","","",""
"","","","","","visual-search-circle","113","344824","0.0-14.0-0.0-1.49","5f52709068e37c52492decd4","619531dcf66c91622fa1b861","6195994ee5a569f5e2ff8c7d","1143.9000000059605","","s","true","[[0,315],[125,544],[381,588],[576,415],[563,155],[351,4],[100,75]]","false","7","main_T2_Trial","s","img/Fire_Up_Target.gif","[""img/Fire_Down_Distractor.gif"",""img/Fire_Down_Distractor.gif"",""img/Fire_Down_Distractor.gif"",""img/Fire_Down_Distractor.gif"",""img/Fire_Down_Distractor.gif"",""img/Fire_Down_Distractor.gif"",""img/Fire_Down_Distractor.gif"",""img/Fire_Down_Distractor.gif"",""img/Fire_Down_Distractor.gif"",""img/Fire_Down_Distractor.gif"",""img/Fire_Down_Distractor.gif"",""img/Fire_Down_Distractor.gif""]","7","targetUp_distractorsDown"
"","","","","","html-keyboard-response","114","344825","0.0-14.0-0.0-0.50","5f52709068e37c52492decd4","619531dcf66c91622fa1b861","6195994ee5a569f5e2ff8c7d","null","","null","","","","","main_T1_ITI","","","","",""
"","","","","","visual-search-circle","115","346713","0.0-14.0-0.0-1.50","5f52709068e37c52492decd4","619531dcf66c91622fa1b861","6195994ee5a569f5e2ff8c7d","877.9000000059605","","s","true","[[412,21],[152,38],[3,252],[78,501],[319,599],[546,471],[587,214]]","false","7","main_T2_Trial","s","img/Fire_Up_Target.gif","[""img/Fire_Down_Distractor.gif"",""img/Fire_Down_Distractor.gif"",""img/Fire_Down_Distractor.gif"",""img/Fire_Down_Distractor.gif"",""img/Fire_Down_Distractor.gif"",""img/Fire_Down_Distractor.gif"",""img/Fire_Down_Distractor.gif"",""img/Fire_Down_Distractor.gif"",""img/Fire_Down_Distractor.gif"",""img/Fire_Down_Distractor.gif"",""img/Fire_Down_Distractor.gif"",""img/Fire_Down_Distractor.gif""]","7","targetUp_distractorsDown"
"","","","","","html-keyboard-response","116","346715","0.0-14.0-0.0-0.51","5f52709068e37c52492decd4","619531dcf66c91622fa1b861","6195994ee5a569f5e2ff8c7d","null","","null","","","","","main_T1_ITI","","","","",""
"","","","","","visual-search-circle","117","349920","0.0-14.0-0.0-1.51","5f52709068e37c52492decd4","619531dcf66c91622fa1b861","6195994ee5a569f5e2ff8c7d","2194.800000011921","","s","true","[[5,242],[71,494],[309,599],[540,479],[590,223],[421,25],[161,34]]","false","7","main_T2_Trial","s","img/Fire_Down_Target.gif","[""img/Fire_Up_Distractor.gif"",""img/Fire_Up_Distractor.gif"",""img/Fire_Up_Distractor.gif"",""img/Fire_Up_Distractor.gif"",""img/Fire_Up_Distractor.gif"",""img/Fire_Up_Distractor.gif"",""img/Fire_Up_Distractor.gif"",""img/Fire_Up_Distractor.gif"",""img/Fire_Up_Distractor.gif"",""img/Fire_Up_Distractor.gif"",""img/Fire_Up_Distractor.gif"",""img/Fire_Up_Distractor.gif""]","7","targetDown_distractorsUp"
"","","","","","html-keyboard-response","118","349922","0.0-14.0-0.0-0.52","5f52709068e37c52492decd4","619531dcf66c91622fa1b861","6195994ee5a569f5e2ff8c7d","null","","null","","","","","main_T1_ITI","","","","",""
"","","","","","visual-search-circle","119","352065","0.0-14.0-0.0-1.52","5f52709068e37c52492decd4","619531dcf66c91622fa1b861","6195994ee5a569f5e2ff8c7d","1129.2999999821186","","d","true","[[217,11],[11,382],[382,588],[588,217]]","true","4","main_T2_Trial","d","img/Fire_Up_Target.gif","[""img/Fire_Down_Distractor.gif"",""img/Fire_Down_Distractor.gif"",""img/Fire_Down_Distractor.gif"",""img/Fire_Down_Distractor.gif"",""img/Fire_Down_Distractor.gif"",""img/Fire_Down_Distractor.gif"",""img/Fire_Down_Distractor.gif"",""img/Fire_Down_Distractor.gif"",""img/Fire_Down_Distractor.gif"",""img/Fire_Down_Distractor.gif"",""img/Fire_Down_Distractor.gif"",""img/Fire_Down_Distractor.gif""]","4","targetUp_distractorsDown"
"","","","","","html-keyboard-response","120","352071","0.0-14.0-0.0-0.53","5f52709068e37c52492decd4","619531dcf66c91622fa1b861","6195994ee5a569f5e2ff8c7d","null","","null","","","","","main_T1_ITI","","","","",""
"","","","","","visual-search-circle","121","353829","0.0-14.0-0.0-1.53","5f52709068e37c52492decd4","619531dcf66c91622fa1b861","6195994ee5a569f5e2ff8c7d","740.3000000119209","","s","true","[[30,431],[279,599],[548,467],[569,168],[320,0],[51,132]]","false","6","main_T2_Trial","s","img/Fire_Up_Target.gif","[""img/Fire_Down_Distractor.gif"",""img/Fire_Down_Distractor.gif"",""img/Fire_Down_Distractor.gif"",""img/Fire_Down_Distractor.gif"",""img/Fire_Down_Distractor.gif"",""img/Fire_Down_Distractor.gif"",""img/Fire_Down_Distractor.gif"",""img/Fire_Down_Distractor.gif"",""img/Fire_Down_Distractor.gif"",""img/Fire_Down_Distractor.gif"",""img/Fire_Down_Distractor.gif"",""img/Fire_Down_Distractor.gif""]","6","targetUp_distractorsDown"
"","","","","","html-keyboard-response","122","353831","0.0-14.0-0.0-0.54","5f52709068e37c52492decd4","619531dcf66c91622fa1b861","6195994ee5a569f5e2ff8c7d","null","","null","","","","","main_T1_ITI","","","","",""
"","","","","","visual-search-circle","123","355539","0.0-14.0-0.0-1.54","5f52709068e37c52492decd4","619531dcf66c91622fa1b861","6195994ee5a569f5e2ff8c7d","702.4000000059605","","s","true","[[551,136],[136,48],[48,463],[463,551]]","false","4","main_T2_Trial","s","img/Fire_Up_Target.gif","[""img/Fire_Down_Distractor.gif"",""img/Fire_Down_Distractor.gif"",""img/Fire_Down_Distractor.gif"",""img/Fire_Down_Distractor.gif"",""img/Fire_Down_Distractor.gif"",""img/Fire_Down_Distractor.gif"",""img/Fire_Down_Distractor.gif"",""img/Fire_Down_Distractor.gif"",""img/Fire_Down_Distractor.gif"",""img/Fire_Down_Distractor.gif"",""img/Fire_Down_Distractor.gif"",""img/Fire_Down_Distractor.gif""]","4","targetUp_distractorsDown"
"","","","","","html-keyboard-response","124","355540","0.0-14.0-0.0-0.55","5f52709068e37c52492decd4","619531dcf66c91622fa1b861","6195994ee5a569f5e2ff8c7d","null","","null","","","","","main_T1_ITI","","","","",""
"","","","","","visual-search-circle","125","357393","0.0-14.0-0.0-1.55","5f52709068e37c52492decd4","619531dcf66c91622fa1b861","6195994ee5a569f5e2ff8c7d","848.3000000119209","","s","true","[[392,14],[57,123],[57,476],[392,585],[600,300]]","false","5","main_T2_Trial","s","img/Fire_Down_Target.gif","[""img/Fire_Up_Distractor.gif"",""img/Fire_Up_Distractor.gif"",""img/Fire_Up_Distractor.gif"",""img/Fire_Up_Distractor.gif"",""img/Fire_Up_Distractor.gif"",""img/Fire_Up_Distractor.gif"",""img/Fire_Up_Distractor.gif"",""img/Fire_Up_Distractor.gif"",""img/Fire_Up_Distractor.gif"",""img/Fire_Up_Distractor.gif"",""img/Fire_Up_Distractor.gif"",""img/Fire_Up_Distractor.gif""]","5","targetDown_distractorsUp"
"","","","","","html-keyboard-response","126","357395","0.0-14.0-0.0-0.56","5f52709068e37c52492decd4","619531dcf66c91622fa1b861","6195994ee5a569f5e2ff8c7d","null","","null","","","","","main_T1_ITI","","","","",""
"","","","","","visual-search-circle","127","359362","0.0-14.0-0.0-1.56","5f52709068e37c52492decd4","619531dcf66c91622fa1b861","6195994ee5a569f5e2ff8c7d","955.7000000178814","","d","true","[[402,581],[581,197],[197,18],[18,402]]","true","4","main_T2_Trial","d","img/Fire_Up_Target.gif","[""img/Fire_Down_Distractor.gif"",""img/Fire_Down_Distractor.gif"",""img/Fire_Down_Distractor.gif"",""img/Fire_Down_Distractor.gif"",""img/Fire_Down_Distractor.gif"",""img/Fire_Down_Distractor.gif"",""img/Fire_Down_Distractor.gif"",""img/Fire_Down_Distractor.gif"",""img/Fire_Down_Distractor.gif"",""img/Fire_Down_Distractor.gif"",""img/Fire_Down_Distractor.gif"",""img/Fire_Down_Distractor.gif""]","4","targetUp_distractorsDown"
"","","","","","html-keyboard-response","128","359365","0.0-14.0-0.0-0.57","5f52709068e37c52492decd4","619531dcf66c91622fa1b861","6195994ee5a569f5e2ff8c7d","null","","null","","","","","main_T1_ITI","","","","",""
"","","","","","visual-search-circle","129","361242","0.0-14.0-0.0-1.57","5f52709068e37c52492decd4","619531dcf66c91622fa1b861","6195994ee5a569f5e2ff8c7d","872.5999999940395","","d","true","[[362,6],[6,237],[237,593],[593,362]]","true","4","main_T2_Trial","d","img/Fire_Up_Target.gif","[""img/Fire_Down_Distractor.gif"",""img/Fire_Down_Distractor.gif"",""img/Fire_Down_Distractor.gif"",""img/Fire_Down_Distractor.gif"",""img/Fire_Down_Distractor.gif"",""img/Fire_Down_Distractor.gif"",""img/Fire_Down_Distractor.gif"",""img/Fire_Down_Distractor.gif"",""img/Fire_Down_Distractor.gif"",""img/Fire_Down_Distractor.gif"",""img/Fire_Down_Distractor.gif"",""img/Fire_Down_Distractor.gif""]","4","targetUp_distractorsDown"
"","","","","","html-keyboard-response","130","361244","0.0-14.0-0.0-0.58","5f52709068e37c52492decd4","619531dcf66c91622fa1b861","6195994ee5a569f5e2ff8c7d","null","","null","","","","","main_T1_ITI","","","","",""
"","","","","","visual-search-circle","131","364244","0.0-14.0-0.0-1.58","5f52709068e37c52492decd4","619531dcf66c91622fa1b861","6195994ee5a569f5e2ff8c7d","1989.800000011921","","s","true","[[7,367],[367,592],[592,232],[232,7]]","false","4","main_T2_Trial","s","img/Fire_Up_Target.gif","[""img/Fire_Down_Distractor.gif"",""img/Fire_Down_Distractor.gif"",""img/Fire_Down_Distractor.gif"",""img/Fire_Down_Distractor.gif"",""img/Fire_Down_Distractor.gif"",""img/Fire_Down_Distractor.gif"",""img/Fire_Down_Distractor.gif"",""img/Fire_Down_Distractor.gif"",""img/Fire_Down_Distractor.gif"",""img/Fire_Down_Distractor.gif"",""img/Fire_Down_Distractor.gif"",""img/Fire_Down_Distractor.gif""]","4","targetUp_distractorsDown"
"","","","","","html-keyboard-response","132","366484","0.0-14.0-0.0-0.59","5f52709068e37c52492decd4","619531dcf66c91622fa1b861","6195994ee5a569f5e2ff8c7d","2239.5999999940395","Wow! You've completed 60 out of 160 trials! </p> <p>  </p><p> Take a quick break, then press any key when you're ready to continue.","s","","","","","main_T1_ITI","","","","",""
"","","","","","visual-search-circle","133","368484","0.0-14.0-0.0-1.59","5f52709068e37c52492decd4","619531dcf66c91622fa1b861","6195994ee5a569f5e2ff8c7d","980.8000000119209","","d","true","[[341,597],[558,452],[580,193],[391,14],[133,50],[1,274],[93,517]]","true","7","main_T2_Trial","d","img/Fire_Up_Target.gif","[""img/Fire_Down_Distractor.gif"",""img/Fire_Down_Distractor.gif"",""img/Fire_Down_Distractor.gif"",""img/Fire_Down_Distractor.gif"",""img/Fire_Down_Distractor.gif"",""img/Fire_Down_Distractor.gif"",""img/Fire_Down_Distractor.gif"",""img/Fire_Down_Distractor.gif"",""img/Fire_Down_Distractor.gif"",""img/Fire_Down_Distractor.gif"",""img/Fire_Down_Distractor.gif"",""img/Fire_Down_Distractor.gif""]","7","targetUp_distractorsDown"
"","","","","","html-keyboard-response","134","368486","0.0-14.0-0.0-0.60","5f52709068e37c52492decd4","619531dcf66c91622fa1b861","6195994ee5a569f5e2ff8c7d","null","","null","","","","","main_T1_ITI","","","","",""
"","","","","","visual-search-circle","135","370429","0.0-14.0-0.0-1.60","5f52709068e37c52492decd4","619531dcf66c91622fa1b861","6195994ee5a569f5e2ff8c7d","935.5","","s","true","[[554,458],[564,159],[310,0],[45,141],[35,440],[289,599]]","false","6","main_T2_Trial","s","img/Fire_Up_Target.gif","[""img/Fire_Down_Distractor.gif"",""img/Fire_Down_Distractor.gif"",""img/Fire_Down_Distractor.gif"",""img/Fire_Down_Distractor.gif"",""img/Fire_Down_Distractor.gif"",""img/Fire_Down_Distractor.gif"",""img/Fire_Down_Distractor.gif"",""img/Fire_Down_Distractor.gif"",""img/Fire_Down_Distractor.gif"",""img/Fire_Down_Distractor.gif"",""img/Fire_Down_Distractor.gif"",""img/Fire_Down_Distractor.gif""]","6","targetUp_distractorsDown"
"","","","","","html-keyboard-response","136","370431","0.0-14.0-0.0-0.61","5f52709068e37c52492decd4","619531dcf66c91622fa1b861","6195994ee5a569f5e2ff8c7d","null","","null","","","","","main_T1_ITI","","","","",""
"","","","","","visual-search-circle","137","372900","0.0-14.0-0.0-1.61","5f52709068e37c52492decd4","619531dcf66c91622fa1b861","6195994ee5a569f5e2ff8c7d","1461.4000000059605","","s","true","[[412,21],[152,38],[3,252],[78,501],[319,599],[546,471],[587,214]]","false","7","main_T2_Trial","s","img/Fire_Down_Target.gif","[""img/Fire_Up_Distractor.gif"",""img/Fire_Up_Distractor.gif"",""img/Fire_Up_Distractor.gif"",""img/Fire_Up_Distractor.gif"",""img/Fire_Up_Distractor.gif"",""img/Fire_Up_Distractor.gif"",""img/Fire_Up_Distractor.gif"",""img/Fire_Up_Distractor.gif"",""img/Fire_Up_Distractor.gif"",""img/Fire_Up_Distractor.gif"",""img/Fire_Up_Distractor.gif"",""img/Fire_Up_Distractor.gif""]","7","targetDown_distractorsUp"
"","","","","","html-keyboard-response","138","372901","0.0-14.0-0.0-0.62","5f52709068e37c52492decd4","619531dcf66c91622fa1b861","6195994ee5a569f5e2ff8c7d","null","","null","","","","","main_T1_ITI","","","","",""
"","","","","","visual-search-circle","139","375066","0.0-14.0-0.0-1.62","5f52709068e37c52492decd4","619531dcf66c91622fa1b861","6195994ee5a569f5e2ff8c7d","1151.9000000059605","","d","true","[[132,548],[548,467],[467,51],[51,132]]","true","4","main_T2_Trial","d","img/Fire_Down_Target.gif","[""img/Fire_Up_Distractor.gif"",""img/Fire_Up_Distractor.gif"",""img/Fire_Up_Distractor.gif"",""img/Fire_Up_Distractor.gif"",""img/Fire_Up_Distractor.gif"",""img/Fire_Up_Distractor.gif"",""img/Fire_Up_Distractor.gif"",""img/Fire_Up_Distractor.gif"",""img/Fire_Up_Distractor.gif"",""img/Fire_Up_Distractor.gif"",""img/Fire_Up_Distractor.gif"",""img/Fire_Up_Distractor.gif""]","4","targetDown_distractorsUp"
"","","","","","html-keyboard-response","140","375068","0.0-14.0-0.0-0.63","5f52709068e37c52492decd4","619531dcf66c91622fa1b861","6195994ee5a569f5e2ff8c7d","null","","null","","","","","main_T1_ITI","","","","",""
"","","","","","visual-search-circle","141","377400","0.0-14.0-0.0-1.63","5f52709068e37c52492decd4","619531dcf66c91622fa1b861","6195994ee5a569f5e2ff8c7d","1317.800000011921","","d","true","[[352,595],[581,402],[529,107],[247,4],[18,197],[70,492]]","true","6","main_T2_Trial","d","img/Fire_Up_Target.gif","[""img/Fire_Down_Distractor.gif"",""img/Fire_Down_Distractor.gif"",""img/Fire_Down_Distractor.gif"",""img/Fire_Down_Distractor.gif"",""img/Fire_Down_Distractor.gif"",""img/Fire_Down_Distractor.gif"",""img/Fire_Down_Distractor.gif"",""img/Fire_Down_Distractor.gif"",""img/Fire_Down_Distractor.gif"",""img/Fire_Down_Distractor.gif"",""img/Fire_Down_Distractor.gif"",""img/Fire_Down_Distractor.gif""]","6","targetUp_distractorsDown"
"","","","","","html-keyboard-response","142","377408","0.0-14.0-0.0-0.64","5f52709068e37c52492decd4","619531dcf66c91622fa1b861","6195994ee5a569f5e2ff8c7d","null","","null","","","","","main_T1_ITI","","","","",""
"","","","","","visual-search-circle","143","379335","0.0-14.0-0.0-1.64","5f52709068e37c52492decd4","619531dcf66c91622fa1b861","6195994ee5a569f5e2ff8c7d","922.0999999940395","","d","true","[[336,597],[594,357],[445,37],[95,80],[28,426]]","true","5","main_T2_Trial","d","img/Fire_Up_Target.gif","[""img/Fire_Down_Distractor.gif"",""img/Fire_Down_Distractor.gif"",""img/Fire_Down_Distractor.gif"",""img/Fire_Down_Distractor.gif"",""img/Fire_Down_Distractor.gif"",""img/Fire_Down_Distractor.gif"",""img/Fire_Down_Distractor.gif"",""img/Fire_Down_Distractor.gif"",""img/Fire_Down_Distractor.gif"",""img/Fire_Down_Distractor.gif"",""img/Fire_Down_Distractor.gif"",""img/Fire_Down_Distractor.gif""]","5","targetUp_distractorsDown"
"","","","","","html-keyboard-response","144","379337","0.0-14.0-0.0-0.65","5f52709068e37c52492decd4","619531dcf66c91622fa1b861","6195994ee5a569f5e2ff8c7d","null","","null","","","","","main_T1_ITI","","","","",""
"","","","","","visual-search-circle","145","382106","0.0-14.0-0.0-1.65","5f52709068e37c52492decd4","619531dcf66c91622fa1b861","6195994ee5a569f5e2ff8c7d","1762.5999999940395","","d","true","[[123,57],[57,476],[476,542],[542,123]]","true","4","main_T2_Trial","d","img/Fire_Down_Target.gif","[""img/Fire_Up_Distractor.gif"",""img/Fire_Up_Distractor.gif"",""img/Fire_Up_Distractor.gif"",""img/Fire_Up_Distractor.gif"",""img/Fire_Up_Distractor.gif"",""img/Fire_Up_Distractor.gif"",""img/Fire_Up_Distractor.gif"",""img/Fire_Up_Distractor.gif"",""img/Fire_Up_Distractor.gif"",""img/Fire_Up_Distractor.gif"",""img/Fire_Up_Distractor.gif"",""img/Fire_Up_Distractor.gif""]","4","targetDown_distractorsUp"
"","","","","","html-keyboard-response","146","382108","0.0-14.0-0.0-0.66","5f52709068e37c52492decd4","619531dcf66c91622fa1b861","6195994ee5a569f5e2ff8c7d","null","","null","","","","","main_T1_ITI","","","","",""
"","","","","","visual-search-circle","147","384783","0.0-14.0-0.0-1.66","5f52709068e37c52492decd4","619531dcf66c91622fa1b861","6195994ee5a569f5e2ff8c7d","1672.5","","s","true","[[596,253],[346,3],[32,163],[87,512],[436,567]]","false","5","main_T2_Trial","s","img/Fire_Up_Target.gif","[""img/Fire_Down_Distractor.gif"",""img/Fire_Down_Distractor.gif"",""img/Fire_Down_Distractor.gif"",""img/Fire_Down_Distractor.gif"",""img/Fire_Down_Distractor.gif"",""img/Fire_Down_Distractor.gif"",""img/Fire_Down_Distractor.gif"",""img/Fire_Down_Distractor.gif"",""img/Fire_Down_Distractor.gif"",""img/Fire_Down_Distractor.gif"",""img/Fire_Down_Distractor.gif"",""img/Fire_Down_Distractor.gif""]","5","targetUp_distractorsDown"
"","","","","","html-keyboard-response","148","384785","0.0-14.0-0.0-0.67","5f52709068e37c52492decd4","619531dcf66c91622fa1b861","6195994ee5a569f5e2ff8c7d","null","","null","","","","","main_T1_ITI","","","","",""
"","","","","","visual-search-circle","149","387313","0.0-14.0-0.0-1.67","5f52709068e37c52492decd4","619531dcf66c91622fa1b861","6195994ee5a569f5e2ff8c7d","1524.800000011921","","s","true","[[367,7],[7,232],[232,592],[592,367]]","false","4","main_T2_Trial","s","img/Fire_Up_Target.gif","[""img/Fire_Down_Distractor.gif"",""img/Fire_Down_Distractor.gif"",""img/Fire_Down_Distractor.gif"",""img/Fire_Down_Distractor.gif"",""img/Fire_Down_Distractor.gif"",""img/Fire_Down_Distractor.gif"",""img/Fire_Down_Distractor.gif"",""img/Fire_Down_Distractor.gif"",""img/Fire_Down_Distractor.gif"",""img/Fire_Down_Distractor.gif"",""img/Fire_Down_Distractor.gif"",""img/Fire_Down_Distractor.gif""]","4","targetUp_distractorsDown"
"","","","","","html-keyboard-response","150","387315","0.0-14.0-0.0-0.68","5f52709068e37c52492decd4","619531dcf66c91622fa1b861","6195994ee5a569f5e2ff8c7d","null","","null","","","","","main_T1_ITI","","","","",""
"","","","","","visual-search-circle","151","390180","0.0-14.0-0.0-1.68","5f52709068e37c52492decd4","619531dcf66c91622fa1b861","6195994ee5a569f5e2ff8c7d","1856.9000000059605","","s","true","[[119,60],[2,258],[60,480],[258,597],[480,539],[597,341],[539,119],[341,2]]","false","8","main_T2_Trial","s","img/Fire_Down_Target.gif","[""img/Fire_Up_Distractor.gif"",""img/Fire_Up_Distractor.gif"",""img/Fire_Up_Distractor.gif"",""img/Fire_Up_Distractor.gif"",""img/Fire_Up_Distractor.gif"",""img/Fire_Up_Distractor.gif"",""img/Fire_Up_Distractor.gif"",""img/Fire_Up_Distractor.gif"",""img/Fire_Up_Distractor.gif"",""img/Fire_Up_Distractor.gif"",""img/Fire_Up_Distractor.gif"",""img/Fire_Up_Distractor.gif""]","8","targetDown_distractorsUp"
"","","","","","html-keyboard-response","152","390182","0.0-14.0-0.0-0.69","5f52709068e37c52492decd4","619531dcf66c91622fa1b861","6195994ee5a569f5e2ff8c7d","null","","null","","","","","main_T1_ITI","","","","",""
"","","","","","visual-search-circle","153","391969","0.0-14.0-0.0-1.69","5f52709068e37c52492decd4","619531dcf66c91622fa1b861","6195994ee5a569f5e2ff8c7d","772.5999999940395","","d","true","[[593,362],[362,6],[6,237],[237,593]]","true","4","main_T2_Trial","d","img/Fire_Up_Target.gif","[""img/Fire_Down_Distractor.gif"",""img/Fire_Down_Distractor.gif"",""img/Fire_Down_Distractor.gif"",""img/Fire_Down_Distractor.gif"",""img/Fire_Down_Distractor.gif"",""img/Fire_Down_Distractor.gif"",""img/Fire_Down_Distractor.gif"",""img/Fire_Down_Distractor.gif"",""img/Fire_Down_Distractor.gif"",""img/Fire_Down_Distractor.gif"",""img/Fire_Down_Distractor.gif"",""img/Fire_Down_Distractor.gif""]","4","targetUp_distractorsDown"
"","","","","","html-keyboard-response","154","391970","0.0-14.0-0.0-0.70","5f52709068e37c52492decd4","619531dcf66c91622fa1b861","6195994ee5a569f5e2ff8c7d","null","","null","","","","","main_T1_ITI","","","","",""
"","","","","","visual-search-circle","155","393739","0.0-14.0-0.0-1.70","5f52709068e37c52492decd4","619531dcf66c91622fa1b861","6195994ee5a569f5e2ff8c7d","756.5999999940395","","s","true","[[127,54],[54,472],[472,545],[545,127]]","false","4","main_T2_Trial","s","img/Fire_Down_Target.gif","[""img/Fire_Up_Distractor.gif"",""img/Fire_Up_Distractor.gif"",""img/Fire_Up_Distractor.gif"",""img/Fire_Up_Distractor.gif"",""img/Fire_Up_Distractor.gif"",""img/Fire_Up_Distractor.gif"",""img/Fire_Up_Distractor.gif"",""img/Fire_Up_Distractor.gif"",""img/Fire_Up_Distractor.gif"",""img/Fire_Up_Distractor.gif"",""img/Fire_Up_Distractor.gif"",""img/Fire_Up_Distractor.gif""]","4","targetDown_distractorsUp"
"","","","","","html-keyboard-response","156","393747","0.0-14.0-0.0-0.71","5f52709068e37c52492decd4","619531dcf66c91622fa1b861","6195994ee5a569f5e2ff8c7d","null","","null","","","","","main_T1_ITI","","","","",""
"","","","","","visual-search-circle","157","396054","0.0-14.0-0.0-1.71","5f52709068e37c52492decd4","619531dcf66c91622fa1b861","6195994ee5a569f5e2ff8c7d","1301.9000000059605","","s","true","[[504,80],[154,37],[5,357],[263,597],[571,426]]","false","5","main_T2_Trial","s","img/Fire_Up_Target.gif","[""img/Fire_Down_Distractor.gif"",""img/Fire_Down_Distractor.gif"",""img/Fire_Down_Distractor.gif"",""img/Fire_Down_Distractor.gif"",""img/Fire_Down_Distractor.gif"",""img/Fire_Down_Distractor.gif"",""img/Fire_Down_Distractor.gif"",""img/Fire_Down_Distractor.gif"",""img/Fire_Down_Distractor.gif"",""img/Fire_Down_Distractor.gif"",""img/Fire_Down_Distractor.gif"",""img/Fire_Down_Distractor.gif""]","5","targetUp_distractorsDown"
"","","","","","html-keyboard-response","158","396057","0.0-14.0-0.0-0.72","5f52709068e37c52492decd4","619531dcf66c91622fa1b861","6195994ee5a569f5e2ff8c7d","null","","null","","","","","main_T1_ITI","","","","",""
"","","","","","visual-search-circle","159","398219","0.0-14.0-0.0-1.72","5f52709068e37c52492decd4","619531dcf66c91622fa1b861","6195994ee5a569f5e2ff8c7d","1149.6000000238419","","s","true","[[45,141],[70,492],[412,578],[599,279],[372,8]]","false","5","main_T2_Trial","s","img/Fire_Down_Target.gif","[""img/Fire_Up_Distractor.gif"",""img/Fire_Up_Distractor.gif"",""img/Fire_Up_Distractor.gif"",""img/Fire_Up_Distractor.gif"",""img/Fire_Up_Distractor.gif"",""img/Fire_Up_Distractor.gif"",""img/Fire_Up_Distractor.gif"",""img/Fire_Up_Distractor.gif"",""img/Fire_Up_Distractor.gif"",""img/Fire_Up_Distractor.gif"",""img/Fire_Up_Distractor.gif"",""img/Fire_Up_Distractor.gif""]","5","targetDown_distractorsUp"
"","","","","","html-keyboard-response","160","398221","0.0-14.0-0.0-0.73","5f52709068e37c52492decd4","619531dcf66c91622fa1b861","6195994ee5a569f5e2ff8c7d","null","","null","","","","","main_T1_ITI","","","","",""
"","","","","","visual-search-circle","161","400079","0.0-14.0-0.0-1.73","5f52709068e37c52492decd4","619531dcf66c91622fa1b861","6195994ee5a569f5e2ff8c7d","842.6999999880791","","s","true","[[596,346],[542,123],[346,3],[123,57],[3,253],[57,476],[253,596],[476,542]]","false","8","main_T2_Trial","s","img/Fire_Up_Target.gif","[""img/Fire_Down_Distractor.gif"",""img/Fire_Down_Distractor.gif"",""img/Fire_Down_Distractor.gif"",""img/Fire_Down_Distractor.gif"",""img/Fire_Down_Distractor.gif"",""img/Fire_Down_Distractor.gif"",""img/Fire_Down_Distractor.gif"",""img/Fire_Down_Distractor.gif"",""img/Fire_Down_Distractor.gif"",""img/Fire_Down_Distractor.gif"",""img/Fire_Down_Distractor.gif"",""img/Fire_Down_Distractor.gif""]","8","targetUp_distractorsDown"
"","","","","","html-keyboard-response","162","400080","0.0-14.0-0.0-0.74","5f52709068e37c52492decd4","619531dcf66c91622fa1b861","6195994ee5a569f5e2ff8c7d","null","","null","","","","","main_T1_ITI","","","","",""
"","","","","","visual-search-circle","163","401948","0.0-14.0-0.0-1.74","5f52709068e37c52492decd4","619531dcf66c91622fa1b861","6195994ee5a569f5e2ff8c7d","859.9000000059605","","d","true","[[454,557],[592,232],[326,1],[23,182],[103,526]]","true","5","main_T2_Trial","d","img/Fire_Down_Target.gif","[""img/Fire_Up_Distractor.gif"",""img/Fire_Up_Distractor.gif"",""img/Fire_Up_Distractor.gif"",""img/Fire_Up_Distractor.gif"",""img/Fire_Up_Distractor.gif"",""img/Fire_Up_Distractor.gif"",""img/Fire_Up_Distractor.gif"",""img/Fire_Up_Distractor.gif"",""img/Fire_Up_Distractor.gif"",""img/Fire_Up_Distractor.gif"",""img/Fire_Up_Distractor.gif"",""img/Fire_Up_Distractor.gif""]","5","targetDown_distractorsUp"
"","","","","","html-keyboard-response","164","401950","0.0-14.0-0.0-0.75","5f52709068e37c52492decd4","619531dcf66c91622fa1b861","6195994ee5a569f5e2ff8c7d","null","","null","","","","","main_T1_ITI","","","","",""
"","","","","","visual-search-circle","165","403662","0.0-14.0-0.0-1.75","5f52709068e37c52492decd4","619531dcf66c91622fa1b861","6195994ee5a569f5e2ff8c7d","700.6000000238419","","s","true","[[407,19],[111,66],[3,346],[192,580],[488,533],[596,253]]","false","6","main_T2_Trial","s","img/Fire_Down_Target.gif","[""img/Fire_Up_Distractor.gif"",""img/Fire_Up_Distractor.gif"",""img/Fire_Up_Distractor.gif"",""img/Fire_Up_Distractor.gif"",""img/Fire_Up_Distractor.gif"",""img/Fire_Up_Distractor.gif"",""img/Fire_Up_Distractor.gif"",""img/Fire_Up_Distractor.gif"",""img/Fire_Up_Distractor.gif"",""img/Fire_Up_Distractor.gif"",""img/Fire_Up_Distractor.gif"",""img/Fire_Up_Distractor.gif""]","6","targetDown_distractorsUp"
"","","","","","html-keyboard-response","166","403664","0.0-14.0-0.0-0.76","5f52709068e37c52492decd4","619531dcf66c91622fa1b861","6195994ee5a569f5e2ff8c7d","null","","null","","","","","main_T1_ITI","","","","",""
"","","","","","visual-search-circle","167","405437","0.0-14.0-0.0-1.76","5f52709068e37c52492decd4","619531dcf66c91622fa1b861","6195994ee5a569f5e2ff8c7d","756","","d","true","[[412,578],[599,279],[372,8],[45,141],[70,492]]","true","5","main_T2_Trial","d","img/Fire_Down_Target.gif","[""img/Fire_Up_Distractor.gif"",""img/Fire_Up_Distractor.gif"",""img/Fire_Up_Distractor.gif"",""img/Fire_Up_Distractor.gif"",""img/Fire_Up_Distractor.gif"",""img/Fire_Up_Distractor.gif"",""img/Fire_Up_Distractor.gif"",""img/Fire_Up_Distractor.gif"",""img/Fire_Up_Distractor.gif"",""img/Fire_Up_Distractor.gif"",""img/Fire_Up_Distractor.gif"",""img/Fire_Up_Distractor.gif""]","5","targetDown_distractorsUp"
"","","","","","html-keyboard-response","168","405439","0.0-14.0-0.0-0.77","5f52709068e37c52492decd4","619531dcf66c91622fa1b861","6195994ee5a569f5e2ff8c7d","null","","null","","","","","main_T1_ITI","","","","",""
"","","","","","visual-search-circle","169","407948","0.0-14.0-0.0-1.77","5f52709068e37c52492decd4","619531dcf66c91622fa1b861","6195994ee5a569f5e2ff8c7d","1498","","d","true","[[177,25],[25,422],[422,574],[574,177]]","true","4","main_T2_Trial","d","img/Fire_Up_Target.gif","[""img/Fire_Down_Distractor.gif"",""img/Fire_Down_Distractor.gif"",""img/Fire_Down_Distractor.gif"",""img/Fire_Down_Distractor.gif"",""img/Fire_Down_Distractor.gif"",""img/Fire_Down_Distractor.gif"",""img/Fire_Down_Distractor.gif"",""img/Fire_Down_Distractor.gif"",""img/Fire_Down_Distractor.gif"",""img/Fire_Down_Distractor.gif"",""img/Fire_Down_Distractor.gif"",""img/Fire_Down_Distractor.gif""]","4","targetUp_distractorsDown"
"","","","","","html-keyboard-response","170","407950","0.0-14.0-0.0-0.78","5f52709068e37c52492decd4","619531dcf66c91622fa1b861","6195994ee5a569f5e2ff8c7d","null","","null","","","","","main_T1_ITI","","","","",""
"","","","","","visual-search-circle","171","410825","0.0-14.0-0.0-1.78","5f52709068e37c52492decd4","619531dcf66c91622fa1b861","6195994ee5a569f5e2ff8c7d","1867.9000000059605","","s","true","[[80,504],[426,571],[597,263],[357,5],[37,154]]","false","5","main_T2_Trial","s","img/Fire_Up_Target.gif","[""img/Fire_Down_Distractor.gif"",""img/Fire_Down_Distractor.gif"",""img/Fire_Down_Distractor.gif"",""img/Fire_Down_Distractor.gif"",""img/Fire_Down_Distractor.gif"",""img/Fire_Down_Distractor.gif"",""img/Fire_Down_Distractor.gif"",""img/Fire_Down_Distractor.gif"",""img/Fire_Down_Distractor.gif"",""img/Fire_Down_Distractor.gif"",""img/Fire_Down_Distractor.gif"",""img/Fire_Down_Distractor.gif""]","5","targetUp_distractorsDown"
"","","","","","html-keyboard-response","172","412429","0.0-14.0-0.0-0.79","5f52709068e37c52492decd4","619531dcf66c91622fa1b861","6195994ee5a569f5e2ff8c7d","1603.7000000178814","Wow! You've completed 80 out of 160 trials! </p> <p>  </p><p> Take a quick break, then press any key when you're ready to continue.","s","","","","","main_T1_ITI","","","","",""
"","","","","","visual-search-circle","173","414388","0.0-14.0-0.0-1.79","5f52709068e37c52492decd4","619531dcf66c91622fa1b861","6195994ee5a569f5e2ff8c7d","954.8000000119209","","d","true","[[0,320],[168,569],[467,548],[599,279],[431,30],[132,51]]","true","6","main_T2_Trial","d","img/Fire_Down_Target.gif","[""img/Fire_Up_Distractor.gif"",""img/Fire_Up_Distractor.gif"",""img/Fire_Up_Distractor.gif"",""img/Fire_Up_Distractor.gif"",""img/Fire_Up_Distractor.gif"",""img/Fire_Up_Distractor.gif"",""img/Fire_Up_Distractor.gif"",""img/Fire_Up_Distractor.gif"",""img/Fire_Up_Distractor.gif"",""img/Fire_Up_Distractor.gif"",""img/Fire_Up_Distractor.gif"",""img/Fire_Up_Distractor.gif""]","6","targetDown_distractorsUp"
"","","","","","html-keyboard-response","174","414390","0.0-14.0-0.0-0.80","5f52709068e37c52492decd4","619531dcf66c91622fa1b861","6195994ee5a569f5e2ff8c7d","null","","null","","","","","main_T1_ITI","","","","",""
"","","","","","visual-search-circle","175","416859","0.0-14.0-0.0-1.80","5f52709068e37c52492decd4","619531dcf66c91622fa1b861","6195994ee5a569f5e2ff8c7d","1460.7999999821186","","s","true","[[18,197],[197,581],[581,402],[402,18]]","false","4","main_T2_Trial","s","img/Fire_Down_Target.gif","[""img/Fire_Up_Distractor.gif"",""img/Fire_Up_Distractor.gif"",""img/Fire_Up_Distractor.gif"",""img/Fire_Up_Distractor.gif"",""img/Fire_Up_Distractor.gif"",""img/Fire_Up_Distractor.gif"",""img/Fire_Up_Distractor.gif"",""img/Fire_Up_Distractor.gif"",""img/Fire_Up_Distractor.gif"",""img/Fire_Up_Distractor.gif"",""img/Fire_Up_Distractor.gif"",""img/Fire_Up_Distractor.gif""]","4","targetDown_distractorsUp"
"","","","","","html-keyboard-response","176","416861","0.0-14.0-0.0-0.81","5f52709068e37c52492decd4","619531dcf66c91622fa1b861","6195994ee5a569f5e2ff8c7d","null","","null","","","","","main_T1_ITI","","","","",""
"","","","","","visual-search-circle","177","418759","0.0-14.0-0.0-1.81","5f52709068e37c52492decd4","619531dcf66c91622fa1b861","6195994ee5a569f5e2ff8c7d","889.7000000178814","","d","false","[[10,377],[149,559],[377,589],[559,450],[589,222],[449,40],[222,10],[40,150]]","false","8","main_T2_Trial","s","img/Fire_Up_Target.gif","[""img/Fire_Down_Distractor.gif"",""img/Fire_Down_Distractor.gif"",""img/Fire_Down_Distractor.gif"",""img/Fire_Down_Distractor.gif"",""img/Fire_Down_Distractor.gif"",""img/Fire_Down_Distractor.gif"",""img/Fire_Down_Distractor.gif"",""img/Fire_Down_Distractor.gif"",""img/Fire_Down_Distractor.gif"",""img/Fire_Down_Distractor.gif"",""img/Fire_Down_Distractor.gif"",""img/Fire_Down_Distractor.gif""]","8","targetUp_distractorsDown"
"","","","","","html-keyboard-response","178","418761","0.0-14.0-0.0-0.82","5f52709068e37c52492decd4","619531dcf66c91622fa1b861","6195994ee5a569f5e2ff8c7d","null","","null","","","","","main_T1_ITI","","","","",""
"","","","","","visual-search-circle","179","420824","0.0-14.0-0.0-1.82","5f52709068e37c52492decd4","619531dcf66c91622fa1b861","6195994ee5a569f5e2ff8c7d","1044.800000011921","","s","true","[[500,522],[574,177],[268,1],[6,237],[150,559]]","false","5","main_T2_Trial","s","img/Fire_Down_Target.gif","[""img/Fire_Up_Distractor.gif"",""img/Fire_Up_Distractor.gif"",""img/Fire_Up_Distractor.gif"",""img/Fire_Up_Distractor.gif"",""img/Fire_Up_Distractor.gif"",""img/Fire_Up_Distractor.gif"",""img/Fire_Up_Distractor.gif"",""img/Fire_Up_Distractor.gif"",""img/Fire_Up_Distractor.gif"",""img/Fire_Up_Distractor.gif"",""img/Fire_Up_Distractor.gif"",""img/Fire_Up_Distractor.gif""]","5","targetDown_distractorsUp"
"","","","","","html-keyboard-response","180","420826","0.0-14.0-0.0-0.83","5f52709068e37c52492decd4","619531dcf66c91622fa1b861","6195994ee5a569f5e2ff8c7d","null","","null","","","","","main_T1_ITI","","","","",""
"","","","","","visual-search-circle","181","422568","0.0-14.0-0.0-1.83","5f52709068e37c52492decd4","619531dcf66c91622fa1b861","6195994ee5a569f5e2ff8c7d","733.9000000059605","","d","true","[[583,397],[553,139],[332,1],[86,88],[2,335],[141,554],[400,582]]","true","7","main_T2_Trial","d","img/Fire_Up_Target.gif","[""img/Fire_Down_Distractor.gif"",""img/Fire_Down_Distractor.gif"",""img/Fire_Down_Distractor.gif"",""img/Fire_Down_Distractor.gif"",""img/Fire_Down_Distractor.gif"",""img/Fire_Down_Distractor.gif"",""img/Fire_Down_Distractor.gif"",""img/Fire_Down_Distractor.gif"",""img/Fire_Down_Distractor.gif"",""img/Fire_Down_Distractor.gif"",""img/Fire_Down_Distractor.gif"",""img/Fire_Down_Distractor.gif""]","7","targetUp_distractorsDown"
"","","","","","html-keyboard-response","182","422569","0.0-14.0-0.0-0.84","5f52709068e37c52492decd4","619531dcf66c91622fa1b861","6195994ee5a569f5e2ff8c7d","null","","null","","","","","main_T1_ITI","","","","",""
"","","","","","visual-search-circle","183","425074","0.0-14.0-0.0-1.84","5f52709068e37c52492decd4","619531dcf66c91622fa1b861","6195994ee5a569f5e2ff8c7d","1489.199999988079","","s","true","[[484,63],[263,2],[63,115],[2,336],[115,536],[336,597],[536,484],[597,263]]","false","8","main_T2_Trial","s","img/Fire_Down_Target.gif","[""img/Fire_Up_Distractor.gif"",""img/Fire_Up_Distractor.gif"",""img/Fire_Up_Distractor.gif"",""img/Fire_Up_Distractor.gif"",""img/Fire_Up_Distractor.gif"",""img/Fire_Up_Distractor.gif"",""img/Fire_Up_Distractor.gif"",""img/Fire_Up_Distractor.gif"",""img/Fire_Up_Distractor.gif"",""img/Fire_Up_Distractor.gif"",""img/Fire_Up_Distractor.gif"",""img/Fire_Up_Distractor.gif""]","8","targetDown_distractorsUp"
"","","","","","html-keyboard-response","184","425076","0.0-14.0-0.0-0.85","5f52709068e37c52492decd4","619531dcf66c91622fa1b861","6195994ee5a569f5e2ff8c7d","null","","null","","","","","main_T1_ITI","","","","",""
"","","","","","visual-search-circle","185","428281","0.0-14.0-0.0-1.85","5f52709068e37c52492decd4","619531dcf66c91622fa1b861","6195994ee5a569f5e2ff8c7d","2196.800000011921","","d","true","[[222,589],[512,512],[589,222],[377,10],[87,87],[10,377]]","true","6","main_T2_Trial","d","img/Fire_Up_Target.gif","[""img/Fire_Down_Distractor.gif"",""img/Fire_Down_Distractor.gif"",""img/Fire_Down_Distractor.gif"",""img/Fire_Down_Distractor.gif"",""img/Fire_Down_Distractor.gif"",""img/Fire_Down_Distractor.gif"",""img/Fire_Down_Distractor.gif"",""img/Fire_Down_Distractor.gif"",""img/Fire_Down_Distractor.gif"",""img/Fire_Down_Distractor.gif"",""img/Fire_Down_Distractor.gif"",""img/Fire_Down_Distractor.gif""]","6","targetUp_distractorsDown"
"","","","","","html-keyboard-response","186","428283","0.0-14.0-0.0-0.86","5f52709068e37c52492decd4","619531dcf66c91622fa1b861","6195994ee5a569f5e2ff8c7d","null","","null","","","","","main_T1_ITI","","","","",""
"","","","","","visual-search-circle","187","430211","0.0-14.0-0.0-1.86","5f52709068e37c52492decd4","619531dcf66c91622fa1b861","6195994ee5a569f5e2ff8c7d","908.9000000059605","","s","true","[[16,202],[46,460],[267,598],[513,511],[597,264],[458,45],[199,17]]","false","7","main_T2_Trial","s","img/Fire_Down_Target.gif","[""img/Fire_Up_Distractor.gif"",""img/Fire_Up_Distractor.gif"",""img/Fire_Up_Distractor.gif"",""img/Fire_Up_Distractor.gif"",""img/Fire_Up_Distractor.gif"",""img/Fire_Up_Distractor.gif"",""img/Fire_Up_Distractor.gif"",""img/Fire_Up_Distractor.gif"",""img/Fire_Up_Distractor.gif"",""img/Fire_Up_Distractor.gif"",""img/Fire_Up_Distractor.gif"",""img/Fire_Up_Distractor.gif""]","7","targetDown_distractorsUp"
"","","","","","html-keyboard-response","188","430213","0.0-14.0-0.0-0.87","5f52709068e37c52492decd4","619531dcf66c91622fa1b861","6195994ee5a569f5e2ff8c7d","null","","null","","","","","main_T1_ITI","","","","",""
"","","","","","visual-search-circle","189","432085","0.0-14.0-0.0-1.87","5f52709068e37c52492decd4","619531dcf66c91622fa1b861","6195994ee5a569f5e2ff8c7d","857.1000000238419","","s","true","[[529,492],[554,141],[227,8],[0,279],[187,578]]","false","5","main_T2_Trial","s","img/Fire_Down_Target.gif","[""img/Fire_Up_Distractor.gif"",""img/Fire_Up_Distractor.gif"",""img/Fire_Up_Distractor.gif"",""img/Fire_Up_Distractor.gif"",""img/Fire_Up_Distractor.gif"",""img/Fire_Up_Distractor.gif"",""img/Fire_Up_Distractor.gif"",""img/Fire_Up_Distractor.gif"",""img/Fire_Up_Distractor.gif"",""img/Fire_Up_Distractor.gif"",""img/Fire_Up_Distractor.gif"",""img/Fire_Up_Distractor.gif""]","5","targetDown_distractorsUp"
"","","","","","html-keyboard-response","190","432087","0.0-14.0-0.0-0.88","5f52709068e37c52492decd4","619531dcf66c91622fa1b861","6195994ee5a569f5e2ff8c7d","null","","null","","","","","main_T1_ITI","","","","",""
"","","","","","visual-search-circle","191","434301","0.0-14.0-0.0-1.88","5f52709068e37c52492decd4","619531dcf66c91622fa1b861","6195994ee5a569f5e2ff8c7d","1208.9000000059605","","d","true","[[5,242],[51,467],[242,594],[467,548],[594,357],[548,132],[357,5],[132,51]]","true","8","main_T2_Trial","d","img/Fire_Up_Target.gif","[""img/Fire_Down_Distractor.gif"",""img/Fire_Down_Distractor.gif"",""img/Fire_Down_Distractor.gif"",""img/Fire_Down_Distractor.gif"",""img/Fire_Down_Distractor.gif"",""img/Fire_Down_Distractor.gif"",""img/Fire_Down_Distractor.gif"",""img/Fire_Down_Distractor.gif"",""img/Fire_Down_Distractor.gif"",""img/Fire_Down_Distractor.gif"",""img/Fire_Down_Distractor.gif"",""img/Fire_Down_Distractor.gif""]","8","targetUp_distractorsDown"
"","","","","","html-keyboard-response","192","434303","0.0-14.0-0.0-0.89","5f52709068e37c52492decd4","619531dcf66c91622fa1b861","6195994ee5a569f5e2ff8c7d","null","","null","","","","","main_T1_ITI","","","","",""
"","","","","","visual-search-circle","193","436230","0.0-14.0-0.0-1.89","5f52709068e37c52492decd4","619531dcf66c91622fa1b861","6195994ee5a569f5e2ff8c7d","915.6999999880791","","s","true","[[284,599],[551,463],[567,163],[315,0],[48,136],[32,436]]","false","6","main_T2_Trial","s","img/Fire_Down_Target.gif","[""img/Fire_Up_Distractor.gif"",""img/Fire_Up_Distractor.gif"",""img/Fire_Up_Distractor.gif"",""img/Fire_Up_Distractor.gif"",""img/Fire_Up_Distractor.gif"",""img/Fire_Up_Distractor.gif"",""img/Fire_Up_Distractor.gif"",""img/Fire_Up_Distractor.gif"",""img/Fire_Up_Distractor.gif"",""img/Fire_Up_Distractor.gif"",""img/Fire_Up_Distractor.gif"",""img/Fire_Up_Distractor.gif""]","6","targetDown_distractorsUp"
"","","","","","html-keyboard-response","194","436232","0.0-14.0-0.0-0.90","5f52709068e37c52492decd4","619531dcf66c91622fa1b861","6195994ee5a569f5e2ff8c7d","null","","null","","","","","main_T1_ITI","","","","",""
"","","","","","visual-search-circle","195","438169","0.0-14.0-0.0-1.90","5f52709068e37c52492decd4","619531dcf66c91622fa1b861","6195994ee5a569f5e2ff8c7d","934.6999999880791","","d","true","[[2,263],[173,571],[519,504],[562,154],[242,5]]","true","5","main_T2_Trial","d","img/Fire_Down_Target.gif","[""img/Fire_Up_Distractor.gif"",""img/Fire_Up_Distractor.gif"",""img/Fire_Up_Distractor.gif"",""img/Fire_Up_Distractor.gif"",""img/Fire_Up_Distractor.gif"",""img/Fire_Up_Distractor.gif"",""img/Fire_Up_Distractor.gif"",""img/Fire_Up_Distractor.gif"",""img/Fire_Up_Distractor.gif"",""img/Fire_Up_Distractor.gif"",""img/Fire_Up_Distractor.gif"",""img/Fire_Up_Distractor.gif""]","5","targetDown_distractorsUp"
"","","","","","html-keyboard-response","196","438171","0.0-14.0-0.0-0.91","5f52709068e37c52492decd4","619531dcf66c91622fa1b861","6195994ee5a569f5e2ff8c7d","null","","null","","","","","main_T1_ITI","","","","",""
"","","","","","visual-search-circle","197","440394","0.0-14.0-0.0-1.91","5f52709068e37c52492decd4","619531dcf66c91622fa1b861","6195994ee5a569f5e2ff8c7d","1212.0999999940395","","d","true","[[377,589],[599,315],[407,19],[66,111],[48,463]]","true","5","main_T2_Trial","d","img/Fire_Up_Target.gif","[""img/Fire_Down_Distractor.gif"",""img/Fire_Down_Distractor.gif"",""img/Fire_Down_Distractor.gif"",""img/Fire_Down_Distractor.gif"",""img/Fire_Down_Distractor.gif"",""img/Fire_Down_Distractor.gif"",""img/Fire_Down_Distractor.gif"",""img/Fire_Down_Distractor.gif"",""img/Fire_Down_Distractor.gif"",""img/Fire_Down_Distractor.gif"",""img/Fire_Down_Distractor.gif"",""img/Fire_Down_Distractor.gif""]","5","targetUp_distractorsDown"
"","","","","","html-keyboard-response","198","440396","0.0-14.0-0.0-0.92","5f52709068e37c52492decd4","619531dcf66c91622fa1b861","6195994ee5a569f5e2ff8c7d","null","","null","","","","","main_T1_ITI","","","","",""
"","","","","","visual-search-circle","199","442710","0.0-14.0-0.0-1.92","5f52709068e37c52492decd4","619531dcf66c91622fa1b861","6195994ee5a569f5e2ff8c7d","1302","","d","true","[[352,595],[597,341],[431,30],[84,91],[35,440]]","true","5","main_T2_Trial","d","img/Fire_Down_Target.gif","[""img/Fire_Up_Distractor.gif"",""img/Fire_Up_Distractor.gif"",""img/Fire_Up_Distractor.gif"",""img/Fire_Up_Distractor.gif"",""img/Fire_Up_Distractor.gif"",""img/Fire_Up_Distractor.gif"",""img/Fire_Up_Distractor.gif"",""img/Fire_Up_Distractor.gif"",""img/Fire_Up_Distractor.gif"",""img/Fire_Up_Distractor.gif"",""img/Fire_Up_Distractor.gif"",""img/Fire_Up_Distractor.gif""]","5","targetDown_distractorsUp"
"","","","","","html-keyboard-response","200","442711","0.0-14.0-0.0-0.93","5f52709068e37c52492decd4","619531dcf66c91622fa1b861","6195994ee5a569f5e2ff8c7d","null","","null","","","","","main_T1_ITI","","","","",""
"","","","","","visual-search-circle","201","445110","0.0-14.0-0.0-1.93","5f52709068e37c52492decd4","619531dcf66c91622fa1b861","6195994ee5a569f5e2ff8c7d","1390.3999999761581","","s","true","[[567,436],[551,136],[284,0],[32,163],[48,463],[315,599]]","false","6","main_T2_Trial","s","img/Fire_Up_Target.gif","[""img/Fire_Down_Distractor.gif"",""img/Fire_Down_Distractor.gif"",""img/Fire_Down_Distractor.gif"",""img/Fire_Down_Distractor.gif"",""img/Fire_Down_Distractor.gif"",""img/Fire_Down_Distractor.gif"",""img/Fire_Down_Distractor.gif"",""img/Fire_Down_Distractor.gif"",""img/Fire_Down_Distractor.gif"",""img/Fire_Down_Distractor.gif"",""img/Fire_Down_Distractor.gif"",""img/Fire_Down_Distractor.gif""]","6","targetUp_distractorsDown"
"","","","","","html-keyboard-response","202","445112","0.0-14.0-0.0-0.94","5f52709068e37c52492decd4","619531dcf66c91622fa1b861","6195994ee5a569f5e2ff8c7d","null","","null","","","","","main_T1_ITI","","","","",""
"","","","","","visual-search-circle","203","447240","0.0-14.0-0.0-1.94","5f52709068e37c52492decd4","619531dcf66c91622fa1b861","6195994ee5a569f5e2ff8c7d","1122.5999999940395","","s","true","[[48,136],[6,362],[136,551],[362,593],[551,463],[593,237],[463,48],[237,6]]","false","8","main_T2_Trial","s","img/Fire_Down_Target.gif","[""img/Fire_Up_Distractor.gif"",""img/Fire_Up_Distractor.gif"",""img/Fire_Up_Distractor.gif"",""img/Fire_Up_Distractor.gif"",""img/Fire_Up_Distractor.gif"",""img/Fire_Up_Distractor.gif"",""img/Fire_Up_Distractor.gif"",""img/Fire_Up_Distractor.gif"",""img/Fire_Up_Distractor.gif"",""img/Fire_Up_Distractor.gif"",""img/Fire_Up_Distractor.gif"",""img/Fire_Up_Distractor.gif""]","8","targetDown_distractorsUp"
"","","","","","html-keyboard-response","204","447243","0.0-14.0-0.0-0.95","5f52709068e37c52492decd4","619531dcf66c91622fa1b861","6195994ee5a569f5e2ff8c7d","null","","null","","","","","main_T1_ITI","","","","",""
"","","","","","visual-search-circle","205","449045","0.0-14.0-0.0-1.95","5f52709068e37c52492decd4","619531dcf66c91622fa1b861","6195994ee5a569f5e2ff8c7d","792.7000000178814","","d","true","[[599,315],[499,75],[248,4],[36,155],[23,415],[218,588],[474,544]]","true","7","main_T2_Trial","d","img/Fire_Down_Target.gif","[""img/Fire_Up_Distractor.gif"",""img/Fire_Up_Distractor.gif"",""img/Fire_Up_Distractor.gif"",""img/Fire_Up_Distractor.gif"",""img/Fire_Up_Distractor.gif"",""img/Fire_Up_Distractor.gif"",""img/Fire_Up_Distractor.gif"",""img/Fire_Up_Distractor.gif"",""img/Fire_Up_Distractor.gif"",""img/Fire_Up_Distractor.gif"",""img/Fire_Up_Distractor.gif"",""img/Fire_Up_Distractor.gif""]","7","targetDown_distractorsUp"
"","","","","","html-keyboard-response","206","449047","0.0-14.0-0.0-0.96","5f52709068e37c52492decd4","619531dcf66c91622fa1b861","6195994ee5a569f5e2ff8c7d","null","","null","","","","","main_T1_ITI","","","","",""
"","","","","","visual-search-circle","207","451480","0.0-14.0-0.0-1.96","5f52709068e37c52492decd4","619531dcf66c91622fa1b861","6195994ee5a569f5e2ff8c7d","1424.300000011921","","s","true","[[598,326],[529,107],[326,1],[107,70],[1,273],[70,492],[273,598],[492,529]]","false","8","main_T2_Trial","s","img/Fire_Up_Target.gif","[""img/Fire_Down_Distractor.gif"",""img/Fire_Down_Distractor.gif"",""img/Fire_Down_Distractor.gif"",""img/Fire_Down_Distractor.gif"",""img/Fire_Down_Distractor.gif"",""img/Fire_Down_Distractor.gif"",""img/Fire_Down_Distractor.gif"",""img/Fire_Down_Distractor.gif"",""img/Fire_Down_Distractor.gif"",""img/Fire_Down_Distractor.gif"",""img/Fire_Down_Distractor.gif"",""img/Fire_Down_Distractor.gif""]","8","targetUp_distractorsDown"
"","","","","","html-keyboard-response","208","451482","0.0-14.0-0.0-0.97","5f52709068e37c52492decd4","619531dcf66c91622fa1b861","6195994ee5a569f5e2ff8c7d","null","","null","","","","","main_T1_ITI","","","","",""
"","","","","","visual-search-circle","209","453199","0.0-14.0-0.0-1.97","5f52709068e37c52492decd4","619531dcf66c91622fa1b861","6195994ee5a569f5e2ff8c7d","699.8000000119209","","d","true","[[578,187],[417,23],[187,21],[23,182],[21,412],[182,576],[412,578],[576,417]]","true","8","main_T2_Trial","d","img/Fire_Up_Target.gif","[""img/Fire_Down_Distractor.gif"",""img/Fire_Down_Distractor.gif"",""img/Fire_Down_Distractor.gif"",""img/Fire_Down_Distractor.gif"",""img/Fire_Down_Distractor.gif"",""img/Fire_Down_Distractor.gif"",""img/Fire_Down_Distractor.gif"",""img/Fire_Down_Distractor.gif"",""img/Fire_Down_Distractor.gif"",""img/Fire_Down_Distractor.gif"",""img/Fire_Down_Distractor.gif"",""img/Fire_Down_Distractor.gif""]","8","targetUp_distractorsDown"
"","","","","","html-keyboard-response","210","453202","0.0-14.0-0.0-0.98","5f52709068e37c52492decd4","619531dcf66c91622fa1b861","6195994ee5a569f5e2ff8c7d","null","","null","","","","","main_T1_ITI","","","","",""
"","","","","","visual-search-circle","211","455149","0.0-14.0-0.0-1.98","5f52709068e37c52492decd4","619531dcf66c91622fa1b861","6195994ee5a569f5e2ff8c7d","936.5","","s","true","[[11,382],[184,577],[444,562],[595,350],[523,100],[283,0],[55,126]]","false","7","main_T2_Trial","s","img/Fire_Up_Target.gif","[""img/Fire_Down_Distractor.gif"",""img/Fire_Down_Distractor.gif"",""img/Fire_Down_Distractor.gif"",""img/Fire_Down_Distractor.gif"",""img/Fire_Down_Distractor.gif"",""img/Fire_Down_Distractor.gif"",""img/Fire_Down_Distractor.gif"",""img/Fire_Down_Distractor.gif"",""img/Fire_Down_Distractor.gif"",""img/Fire_Down_Distractor.gif"",""img/Fire_Down_Distractor.gif"",""img/Fire_Down_Distractor.gif""]","7","targetUp_distractorsDown"
"","","","","","html-keyboard-response","212","455936","0.0-14.0-0.0-0.99","5f52709068e37c52492decd4","619531dcf66c91622fa1b861","6195994ee5a569f5e2ff8c7d","786.5","Wow! You've completed 100 out of 160 trials! </p> <p>  </p><p> Take a quick break, then press any key when you're ready to continue.","s","","","","","main_T1_ITI","","","","",""
"","","","","","visual-search-circle","213","457680","0.0-14.0-0.0-1.99","5f52709068e37c52492decd4","619531dcf66c91622fa1b861","6195994ee5a569f5e2ff8c7d","725.4000000059605","","s","true","[[591,372],[538,117],[305,0],[69,108],[6,360],[164,567],[424,572]]","false","7","main_T2_Trial","s","img/Fire_Up_Target.gif","[""img/Fire_Down_Distractor.gif"",""img/Fire_Down_Distractor.gif"",""img/Fire_Down_Distractor.gif"",""img/Fire_Down_Distractor.gif"",""img/Fire_Down_Distractor.gif"",""img/Fire_Down_Distractor.gif"",""img/Fire_Down_Distractor.gif"",""img/Fire_Down_Distractor.gif"",""img/Fire_Down_Distractor.gif"",""img/Fire_Down_Distractor.gif"",""img/Fire_Down_Distractor.gif"",""img/Fire_Down_Distractor.gif""]","7","targetUp_distractorsDown"
"","","","","","html-keyboard-response","214","457683","0.0-14.0-0.0-0.100","5f52709068e37c52492decd4","619531dcf66c91622fa1b861","6195994ee5a569f5e2ff8c7d","null","","null","","","","","main_T1_ITI","","","","",""
"","","","","","visual-search-circle","215","459599","0.0-14.0-0.0-1.100","5f52709068e37c52492decd4","619531dcf66c91622fa1b861","6195994ee5a569f5e2ff8c7d","901.0999999940395","","d","true","[[154,562],[504,519],[571,173],[263,2],[5,242]]","true","5","main_T2_Trial","d","img/Fire_Down_Target.gif","[""img/Fire_Up_Distractor.gif"",""img/Fire_Up_Distractor.gif"",""img/Fire_Up_Distractor.gif"",""img/Fire_Up_Distractor.gif"",""img/Fire_Up_Distractor.gif"",""img/Fire_Up_Distractor.gif"",""img/Fire_Up_Distractor.gif"",""img/Fire_Up_Distractor.gif"",""img/Fire_Up_Distractor.gif"",""img/Fire_Up_Distractor.gif"",""img/Fire_Up_Distractor.gif"",""img/Fire_Up_Distractor.gif""]","5","targetDown_distractorsUp"
