"success","timeout","failed_images","failed_audio","failed_video","trial_type","trial_index","time_elapsed","internal_node_id","subject_id","study_id","session_id","rt","stimulus","response","correct","locations","target_present","set_size","task","correct_response","target","foilCM","setSizeCM","searchCondition"
"true","false","[]","[]","[]","preload","0","36660","0.0-0.0","5f7601d14e4cec02189a3b0e","619531dcf66c91622fa1b861","619595b4a818dd99c306a983","","","","","","","","","","","","",""
"true","","","","","fullscreen","1","46151","0.0-1.0","5f7601d14e4cec02189a3b0e","619531dcf66c91622fa1b861","619595b4a818dd99c306a983","","","","","","","","","","","","",""
"","","","","","html-keyboard-response","2","48133","0.0-2.0","5f7601d14e4cec02189a3b0e","619531dcf66c91622fa1b861","619595b4a818dd99c306a983","1980.7000000029802","What a beautiful Thursday to do some awesome science! </p> <p>  </p><p> </p>
    By completing this survey or questionnaire, you are consenting to be in this research study. </p>
    Your participation is voluntary and you can stop at any time.
    <p> [Press any key to continue.] </p>
    
    ","arrowright","","","","","","","","","",""
"","","","","","video-keyboard-response","3","75999","0.0-3.0","5f7601d14e4cec02189a3b0e","619531dcf66c91622fa1b861","619595b4a818dd99c306a983","27863.89999999851","[""video/TaskInstructions.mp4""]"," ","","","","","","","","","",""
"","","","","","html-keyboard-response","4","77138","0.0-4.0","5f7601d14e4cec02189a3b0e","619531dcf66c91622fa1b861","619595b4a818dd99c306a983","1138.1000000014901","
    <p>First, we're going to do a few practice trials to make sure you understand the task. You will recieve feedback on each trial. </p>
    <p>[Press any key to begin the familiarization phase.]</p>
    "," ","","","","","","","","","",""
"","","","","","visual-search-circle","5","82884","0.0-5.0-0.0","5f7601d14e4cec02189a3b0e","619531dcf66c91622fa1b861","619595b4a818dd99c306a983","4679.29999999702","","s","false","[[585,392],[392,14],[14,207],[207,585]]","true","4","training","d","","","",""
"","","","","","html-keyboard-response","6","87707","0.0-6.0","5f7601d14e4cec02189a3b0e","619531dcf66c91622fa1b861","619595b4a818dd99c306a983","4822.29999999702"," <div style='float: center;'><img src='img/feedbackWrong.png'></img> </div> "," ","","","","","","","","","",""
"","","","","","visual-search-circle","7","89236","0.0-7.0-0.0","5f7601d14e4cec02189a3b0e","619531dcf66c91622fa1b861","619595b4a818dd99c306a983","520.1999999955297","","d","false","[[177,574],[574,422],[422,25],[25,177]]","false","4","training","s","","","",""
"","","","","","html-keyboard-response","8","90810","0.0-8.0","5f7601d14e4cec02189a3b0e","619531dcf66c91622fa1b861","619595b4a818dd99c306a983","1574"," <div style='float: center;'><img src='img/feedbackWrong.png'></img> </div> "," ","","","","","","","","","",""
"","","","","","visual-search-circle","9","95020","0.0-9.0-0.0","5f7601d14e4cec02189a3b0e","619531dcf66c91622fa1b861","619595b4a818dd99c306a983","3204.2999999970198","","s","true","[[115,536],[412,578],[597,341],[484,63],[187,21],[2,258]]","false","6","training","s","","","",""
"","","","","","html-keyboard-response","10","96020","0.0-10.0","5f7601d14e4cec02189a3b0e","619531dcf66c91622fa1b861","619595b4a818dd99c306a983","999.1000000014901"," <div style='float: center; '><img src='img/feedbackRight.png'></img> </div> "," ","","","","","","","","","",""
"","","","","","visual-search-circle","11","98553","0.0-11.0-0.0","5f7601d14e4cec02189a3b0e","619531dcf66c91622fa1b861","619595b4a818dd99c306a983","1516.7999999970198","","d","true","[[253,596],[476,542],[596,346],[542,123],[346,3],[123,57],[3,253],[57,476]]","true","8","training","d","","","",""
"","","","","","html-keyboard-response","12","99079","0.0-12.0","5f7601d14e4cec02189a3b0e","619531dcf66c91622fa1b861","619595b4a818dd99c306a983","525.7000000029802"," <div style='float: center; '><img src='img/feedbackRight.png'></img> </div> "," ","","","","","","","","","",""
"","","","","","video-keyboard-response","13","100558","0.0-13.0","5f7601d14e4cec02189a3b0e","619531dcf66c91622fa1b861","619595b4a818dd99c306a983","1477.5999999940395","[""video/endTraining.mp4""]"," ","","","","","","","","","",""
"","","","","","html-keyboard-response","14","100561","0.0-14.0-0.0-0.0","5f7601d14e4cec02189a3b0e","619531dcf66c91622fa1b861","619595b4a818dd99c306a983","null","","null","","","","","main_T1_ITI","","","","",""
"","","","","","visual-search-circle","15","104722","0.0-14.0-0.0-1.0","5f7601d14e4cec02189a3b0e","619531dcf66c91622fa1b861","619595b4a818dd99c306a983","3152.1999999955297","","s","true","[[519,504],[504,80],[80,95],[95,519]]","false","4","main_T2_Trial","s","img/Fire_Up_Target.gif","[""img/Fire_Down_Distractor.gif"",""img/Fire_Down_Distractor.gif"",""img/Fire_Down_Distractor.gif"",""img/Fire_Down_Distractor.gif"",""img/Fire_Down_Distractor.gif"",""img/Fire_Down_Distractor.gif"",""img/Fire_Down_Distractor.gif"",""img/Fire_Down_Distractor.gif"",""img/Fire_Down_Distractor.gif"",""img/Fire_Down_Distractor.gif"",""img/Fire_Down_Distractor.gif"",""img/Fire_Down_Distractor.gif""]","4","targetUp_distractorsDown"
"","","","","","html-keyboard-response","16","104724","0.0-14.0-0.0-0.1","5f7601d14e4cec02189a3b0e","619531dcf66c91622fa1b861","619595b4a818dd99c306a983","null","","null","","","","","main_T1_ITI","","","","",""
"","","","","","visual-search-circle","17","108793","0.0-14.0-0.0-1.1","5f7601d14e4cec02189a3b0e","619531dcf66c91622fa1b861","619595b4a818dd99c306a983","3065.7000000029802","","s","true","[[18,197],[70,492],[352,595],[581,402],[529,107],[247,4]]","false","6","main_T2_Trial","s","img/Fire_Up_Target.gif","[""img/Fire_Down_Distractor.gif"",""img/Fire_Down_Distractor.gif"",""img/Fire_Down_Distractor.gif"",""img/Fire_Down_Distractor.gif"",""img/Fire_Down_Distractor.gif"",""img/Fire_Down_Distractor.gif"",""img/Fire_Down_Distractor.gif"",""img/Fire_Down_Distractor.gif"",""img/Fire_Down_Distractor.gif"",""img/Fire_Down_Distractor.gif"",""img/Fire_Down_Distractor.gif"",""img/Fire_Down_Distractor.gif""]","6","targetUp_distractorsDown"
"","","","","","html-keyboard-response","18","108802","0.0-14.0-0.0-0.2","5f7601d14e4cec02189a3b0e","619531dcf66c91622fa1b861","619595b4a818dd99c306a983","null","","null","","","","","main_T1_ITI","","","","",""
"","","","","","visual-search-circle","19","113270","0.0-14.0-0.0-1.2","5f7601d14e4cec02189a3b0e","619531dcf66c91622fa1b861","619595b4a818dd99c306a983","3465.10000000149","","s","true","[[594,242],[242,5],[5,357],[357,594]]","false","4","main_T2_Trial","s","img/Fire_Up_Target.gif","[""img/Fire_Down_Distractor.gif"",""img/Fire_Down_Distractor.gif"",""img/Fire_Down_Distractor.gif"",""img/Fire_Down_Distractor.gif"",""img/Fire_Down_Distractor.gif"",""img/Fire_Down_Distractor.gif"",""img/Fire_Down_Distractor.gif"",""img/Fire_Down_Distractor.gif"",""img/Fire_Down_Distractor.gif"",""img/Fire_Down_Distractor.gif"",""img/Fire_Down_Distractor.gif"",""img/Fire_Down_Distractor.gif""]","4","targetUp_distractorsDown"
"","","","","","html-keyboard-response","20","113279","0.0-14.0-0.0-0.3","5f7601d14e4cec02189a3b0e","619531dcf66c91622fa1b861","619595b4a818dd99c306a983","null","","null","","","","","main_T1_ITI","","","","",""
"","","","","","visual-search-circle","21","132187","0.0-14.0-0.0-1.3","5f7601d14e4cec02189a3b0e","619531dcf66c91622fa1b861","619595b4a818dd99c306a983","17896","","d","true","[[594,357],[548,132],[357,5],[132,51],[5,242],[51,467],[242,594],[467,548]]","true","8","main_T2_Trial","d","img/Fire_Down_Target.gif","[""img/Fire_Up_Distractor.gif"",""img/Fire_Up_Distractor.gif"",""img/Fire_Up_Distractor.gif"",""img/Fire_Up_Distractor.gif"",""img/Fire_Up_Distractor.gif"",""img/Fire_Up_Distractor.gif"",""img/Fire_Up_Distractor.gif"",""img/Fire_Up_Distractor.gif"",""img/Fire_Up_Distractor.gif"",""img/Fire_Up_Distractor.gif"",""img/Fire_Up_Distractor.gif"",""img/Fire_Up_Distractor.gif""]","8","targetDown_distractorsUp"
"","","","","","html-keyboard-response","22","132197","0.0-14.0-0.0-0.4","5f7601d14e4cec02189a3b0e","619531dcf66c91622fa1b861","619595b4a818dd99c306a983","null","","null","","","","","main_T1_ITI","","","","",""
"","","","","","visual-search-circle","23","137809","0.0-14.0-0.0-1.4","5f7601d14e4cec02189a3b0e","619531dcf66c91622fa1b861","619595b4a818dd99c306a983","4598.10000000149","","s","true","[[500,77],[250,4],[37,153],[22,413],[215,587],[472,545],[599,317]]","false","7","main_T2_Trial","s","img/Fire_Down_Target.gif","[""img/Fire_Up_Distractor.gif"",""img/Fire_Up_Distractor.gif"",""img/Fire_Up_Distractor.gif"",""img/Fire_Up_Distractor.gif"",""img/Fire_Up_Distractor.gif"",""img/Fire_Up_Distractor.gif"",""img/Fire_Up_Distractor.gif"",""img/Fire_Up_Distractor.gif"",""img/Fire_Up_Distractor.gif"",""img/Fire_Up_Distractor.gif"",""img/Fire_Up_Distractor.gif"",""img/Fire_Up_Distractor.gif""]","7","targetDown_distractorsUp"
"","","","","","html-keyboard-response","24","137811","0.0-14.0-0.0-0.5","5f7601d14e4cec02189a3b0e","619531dcf66c91622fa1b861","619595b4a818dd99c306a983","null","","null","","","","","main_T1_ITI","","","","",""
"","","","","","visual-search-circle","25","144483","0.0-14.0-0.0-1.5","5f7601d14e4cec02189a3b0e","619531dcf66c91622fa1b861","619595b4a818dd99c306a983","5662.19999999553","","s","true","[[551,136],[329,1],[84,91],[2,338],[144,556],[403,581],[584,394]]","false","7","main_T2_Trial","s","img/Fire_Up_Target.gif","[""img/Fire_Down_Distractor.gif"",""img/Fire_Down_Distractor.gif"",""img/Fire_Down_Distractor.gif"",""img/Fire_Down_Distractor.gif"",""img/Fire_Down_Distractor.gif"",""img/Fire_Down_Distractor.gif"",""img/Fire_Down_Distractor.gif"",""img/Fire_Down_Distractor.gif"",""img/Fire_Down_Distractor.gif"",""img/Fire_Down_Distractor.gif"",""img/Fire_Down_Distractor.gif"",""img/Fire_Down_Distractor.gif""]","7","targetUp_distractorsDown"
"","","","","","html-keyboard-response","26","144485","0.0-14.0-0.0-0.6","5f7601d14e4cec02189a3b0e","619531dcf66c91622fa1b861","619595b4a818dd99c306a983","null","","null","","","","","main_T1_ITI","","","","",""
"","","","","","visual-search-circle","27","157249","0.0-14.0-0.0-1.6","5f7601d14e4cec02189a3b0e","619531dcf66c91622fa1b861","619595b4a818dd99c306a983","11751.09999999404","","d","false","[[289,0],[59,121],[10,376],[179,574],[439,565],[594,356],[527,104]]","false","7","main_T2_Trial","s","img/Fire_Down_Target.gif","[""img/Fire_Up_Distractor.gif"",""img/Fire_Up_Distractor.gif"",""img/Fire_Up_Distractor.gif"",""img/Fire_Up_Distractor.gif"",""img/Fire_Up_Distractor.gif"",""img/Fire_Up_Distractor.gif"",""img/Fire_Up_Distractor.gif"",""img/Fire_Up_Distractor.gif"",""img/Fire_Up_Distractor.gif"",""img/Fire_Up_Distractor.gif"",""img/Fire_Up_Distractor.gif"",""img/Fire_Up_Distractor.gif""]","7","targetDown_distractorsUp"
"","","","","","html-keyboard-response","28","157251","0.0-14.0-0.0-0.7","5f7601d14e4cec02189a3b0e","619531dcf66c91622fa1b861","619595b4a818dd99c306a983","null","","null","","","","","main_T1_ITI","","","","",""
"","","","","","visual-search-circle","29","159543","0.0-14.0-0.0-1.7","5f7601d14e4cec02189a3b0e","619531dcf66c91622fa1b861","619595b4a818dd99c306a983","1274.3000000044703","","d","true","[[119,539],[539,480],[480,60],[60,119]]","true","4","main_T2_Trial","d","img/Fire_Down_Target.gif","[""img/Fire_Up_Distractor.gif"",""img/Fire_Up_Distractor.gif"",""img/Fire_Up_Distractor.gif"",""img/Fire_Up_Distractor.gif"",""img/Fire_Up_Distractor.gif"",""img/Fire_Up_Distractor.gif"",""img/Fire_Up_Distractor.gif"",""img/Fire_Up_Distractor.gif"",""img/Fire_Up_Distractor.gif"",""img/Fire_Up_Distractor.gif"",""img/Fire_Up_Distractor.gif"",""img/Fire_Up_Distractor.gif""]","4","targetDown_distractorsUp"
"","","","","","html-keyboard-response","30","159547","0.0-14.0-0.0-0.8","5f7601d14e4cec02189a3b0e","619531dcf66c91622fa1b861","619595b4a818dd99c306a983","null","","null","","","","","main_T1_ITI","","","","",""
"","","","","","visual-search-circle","31","163887","0.0-14.0-0.0-1.8","5f7601d14e4cec02189a3b0e","619531dcf66c91622fa1b861","619595b4a818dd99c306a983","3323.2000000029802","","s","true","[[30,431],[234,592],[488,533],[599,298],[485,64],[231,7],[29,171]]","false","7","main_T2_Trial","s","img/Fire_Up_Target.gif","[""img/Fire_Down_Distractor.gif"",""img/Fire_Down_Distractor.gif"",""img/Fire_Down_Distractor.gif"",""img/Fire_Down_Distractor.gif"",""img/Fire_Down_Distractor.gif"",""img/Fire_Down_Distractor.gif"",""img/Fire_Down_Distractor.gif"",""img/Fire_Down_Distractor.gif"",""img/Fire_Down_Distractor.gif"",""img/Fire_Down_Distractor.gif"",""img/Fire_Down_Distractor.gif"",""img/Fire_Down_Distractor.gif""]","7","targetUp_distractorsDown"
"","","","","","html-keyboard-response","32","163888","0.0-14.0-0.0-0.9","5f7601d14e4cec02189a3b0e","619531dcf66c91622fa1b861","619595b4a818dd99c306a983","null","","null","","","","","main_T1_ITI","","","","",""
"","","","","","visual-search-circle","33","166230","0.0-14.0-0.0-1.9","5f7601d14e4cec02189a3b0e","619531dcf66c91622fa1b861","619595b4a818dd99c306a983","1335.1000000014901","","d","true","[[279,599],[520,502],[596,253],[448,39],[189,21],[12,213],[52,470]]","true","7","main_T2_Trial","d","img/Fire_Down_Target.gif","[""img/Fire_Up_Distractor.gif"",""img/Fire_Up_Distractor.gif"",""img/Fire_Up_Distractor.gif"",""img/Fire_Up_Distractor.gif"",""img/Fire_Up_Distractor.gif"",""img/Fire_Up_Distractor.gif"",""img/Fire_Up_Distractor.gif"",""img/Fire_Up_Distractor.gif"",""img/Fire_Up_Distractor.gif"",""img/Fire_Up_Distractor.gif"",""img/Fire_Up_Distractor.gif"",""img/Fire_Up_Distractor.gif""]","7","targetDown_distractorsUp"
"","","","","","html-keyboard-response","34","166233","0.0-14.0-0.0-0.10","5f7601d14e4cec02189a3b0e","619531dcf66c91622fa1b861","619595b4a818dd99c306a983","null","","null","","","","","main_T1_ITI","","","","",""
"","","","","","visual-search-circle","35","169923","0.0-14.0-0.0-1.10","5f7601d14e4cec02189a3b0e","619531dcf66c91622fa1b861","619595b4a818dd99c306a983","2679.8000000044703","","d","true","[[159,564],[508,515],[569,168],[258,2],[4,247]]","true","5","main_T2_Trial","d","img/Fire_Up_Target.gif","[""img/Fire_Down_Distractor.gif"",""img/Fire_Down_Distractor.gif"",""img/Fire_Down_Distractor.gif"",""img/Fire_Down_Distractor.gif"",""img/Fire_Down_Distractor.gif"",""img/Fire_Down_Distractor.gif"",""img/Fire_Down_Distractor.gif"",""img/Fire_Down_Distractor.gif"",""img/Fire_Down_Distractor.gif"",""img/Fire_Down_Distractor.gif"",""img/Fire_Down_Distractor.gif"",""img/Fire_Down_Distractor.gif""]","5","targetUp_distractorsDown"
"","","","","","html-keyboard-response","36","169925","0.0-14.0-0.0-0.11","5f7601d14e4cec02189a3b0e","619531dcf66c91622fa1b861","619595b4a818dd99c306a983","null","","null","","","","","main_T1_ITI","","","","",""
"","","","","","visual-search-circle","37","174707","0.0-14.0-0.0-1.11","5f7601d14e4cec02189a3b0e","619531dcf66c91622fa1b861","619595b4a818dd99c306a983","3771.7999999970198","","s","true","[[492,70],[197,18],[4,247],[107,529],[402,581],[595,352]]","false","6","main_T2_Trial","s","img/Fire_Down_Target.gif","[""img/Fire_Up_Distractor.gif"",""img/Fire_Up_Distractor.gif"",""img/Fire_Up_Distractor.gif"",""img/Fire_Up_Distractor.gif"",""img/Fire_Up_Distractor.gif"",""img/Fire_Up_Distractor.gif"",""img/Fire_Up_Distractor.gif"",""img/Fire_Up_Distractor.gif"",""img/Fire_Up_Distractor.gif"",""img/Fire_Up_Distractor.gif"",""img/Fire_Up_Distractor.gif"",""img/Fire_Up_Distractor.gif""]","6","targetDown_distractorsUp"
"","","","","","html-keyboard-response","38","174710","0.0-14.0-0.0-0.12","5f7601d14e4cec02189a3b0e","619531dcf66c91622fa1b861","619595b4a818dd99c306a983","null","","null","","","","","main_T1_ITI","","","","",""
"","","","","","visual-search-circle","39","177340","0.0-14.0-0.0-1.12","5f7601d14e4cec02189a3b0e","619531dcf66c91622fa1b861","619595b4a818dd99c306a983","1624.9000000059605","","d","true","[[273,1],[1,326],[326,598],[598,273]]","true","4","main_T2_Trial","d","img/Fire_Down_Target.gif","[""img/Fire_Up_Distractor.gif"",""img/Fire_Up_Distractor.gif"",""img/Fire_Up_Distractor.gif"",""img/Fire_Up_Distractor.gif"",""img/Fire_Up_Distractor.gif"",""img/Fire_Up_Distractor.gif"",""img/Fire_Up_Distractor.gif"",""img/Fire_Up_Distractor.gif"",""img/Fire_Up_Distractor.gif"",""img/Fire_Up_Distractor.gif"",""img/Fire_Up_Distractor.gif"",""img/Fire_Up_Distractor.gif""]","4","targetDown_distractorsUp"
"","","","","","html-keyboard-response","40","177344","0.0-14.0-0.0-0.13","5f7601d14e4cec02189a3b0e","619531dcf66c91622fa1b861","619595b4a818dd99c306a983","null","","null","","","","","main_T1_ITI","","","","",""
"","","","","","visual-search-circle","41","180779","0.0-14.0-0.0-1.13","5f7601d14e4cec02189a3b0e","619531dcf66c91622fa1b861","619595b4a818dd99c306a983","2422.7999999970198","","d","true","[[42,454],[367,592],[598,326],[417,23],[73,103]]","true","5","main_T2_Trial","d","img/Fire_Up_Target.gif","[""img/Fire_Down_Distractor.gif"",""img/Fire_Down_Distractor.gif"",""img/Fire_Down_Distractor.gif"",""img/Fire_Down_Distractor.gif"",""img/Fire_Down_Distractor.gif"",""img/Fire_Down_Distractor.gif"",""img/Fire_Down_Distractor.gif"",""img/Fire_Down_Distractor.gif"",""img/Fire_Down_Distractor.gif"",""img/Fire_Down_Distractor.gif"",""img/Fire_Down_Distractor.gif"",""img/Fire_Down_Distractor.gif""]","5","targetUp_distractorsDown"
"","","","","","html-keyboard-response","42","180781","0.0-14.0-0.0-0.14","5f7601d14e4cec02189a3b0e","619531dcf66c91622fa1b861","619595b4a818dd99c306a983","null","","null","","","","","main_T1_ITI","","","","",""
"","","","","","visual-search-circle","43","191949","0.0-14.0-0.0-1.14","5f7601d14e4cec02189a3b0e","619531dcf66c91622fa1b861","619595b4a818dd99c306a983","10160.39999999851","","d","true","[[476,542],[599,313],[497,74],[246,4],[35,157],[24,417],[220,589]]","true","7","main_T2_Trial","d","img/Fire_Down_Target.gif","[""img/Fire_Up_Distractor.gif"",""img/Fire_Up_Distractor.gif"",""img/Fire_Up_Distractor.gif"",""img/Fire_Up_Distractor.gif"",""img/Fire_Up_Distractor.gif"",""img/Fire_Up_Distractor.gif"",""img/Fire_Up_Distractor.gif"",""img/Fire_Up_Distractor.gif"",""img/Fire_Up_Distractor.gif"",""img/Fire_Up_Distractor.gif"",""img/Fire_Up_Distractor.gif"",""img/Fire_Up_Distractor.gif""]","7","targetDown_distractorsUp"
"","","","","","html-keyboard-response","44","191950","0.0-14.0-0.0-0.15","5f7601d14e4cec02189a3b0e","619531dcf66c91622fa1b861","619595b4a818dd99c306a983","null","","null","","","","","main_T1_ITI","","","","",""
"","","","","","visual-search-circle","45","199558","0.0-14.0-0.0-1.15","5f7601d14e4cec02189a3b0e","619531dcf66c91622fa1b861","619595b4a818dd99c306a983","6589.5","","s","true","[[268,1],[25,177],[57,476],[331,598],[574,422],[542,123]]","false","6","main_T2_Trial","s","img/Fire_Up_Target.gif","[""img/Fire_Down_Distractor.gif"",""img/Fire_Down_Distractor.gif"",""img/Fire_Down_Distractor.gif"",""img/Fire_Down_Distractor.gif"",""img/Fire_Down_Distractor.gif"",""img/Fire_Down_Distractor.gif"",""img/Fire_Down_Distractor.gif"",""img/Fire_Down_Distractor.gif"",""img/Fire_Down_Distractor.gif"",""img/Fire_Down_Distractor.gif"",""img/Fire_Down_Distractor.gif"",""img/Fire_Down_Distractor.gif""]","6","targetUp_distractorsDown"
"","","","","","html-keyboard-response","46","199567","0.0-14.0-0.0-0.16","5f7601d14e4cec02189a3b0e","619531dcf66c91622fa1b861","619595b4a818dd99c306a983","null","","null","","","","","main_T1_ITI","","","","",""
"","","","","","visual-search-circle","47","213897","0.0-14.0-0.0-1.16","5f7601d14e4cec02189a3b0e","619531dcf66c91622fa1b861","619595b4a818dd99c306a983","13316.10000000149","","d","true","[[554,141],[334,1],[88,87],[1,332],[139,553],[398,583],[582,399]]","true","7","main_T2_Trial","d","img/Fire_Up_Target.gif","[""img/Fire_Down_Distractor.gif"",""img/Fire_Down_Distractor.gif"",""img/Fire_Down_Distractor.gif"",""img/Fire_Down_Distractor.gif"",""img/Fire_Down_Distractor.gif"",""img/Fire_Down_Distractor.gif"",""img/Fire_Down_Distractor.gif"",""img/Fire_Down_Distractor.gif"",""img/Fire_Down_Distractor.gif"",""img/Fire_Down_Distractor.gif"",""img/Fire_Down_Distractor.gif"",""img/Fire_Down_Distractor.gif""]","7","targetUp_distractorsDown"
"","","","","","html-keyboard-response","48","213899","0.0-14.0-0.0-0.17","5f7601d14e4cec02189a3b0e","619531dcf66c91622fa1b861","619595b4a818dd99c306a983","null","","null","","","","","main_T1_ITI","","","","",""
"","","","","","visual-search-circle","49","216374","0.0-14.0-0.0-1.17","5f7601d14e4cec02189a3b0e","619531dcf66c91622fa1b861","619595b4a818dd99c306a983","1454.7000000029802","","s","true","[[515,508],[599,294],[508,84],[294,0],[84,91],[0,305],[91,515],[305,599]]","false","8","main_T2_Trial","s","img/Fire_Up_Target.gif","[""img/Fire_Down_Distractor.gif"",""img/Fire_Down_Distractor.gif"",""img/Fire_Down_Distractor.gif"",""img/Fire_Down_Distractor.gif"",""img/Fire_Down_Distractor.gif"",""img/Fire_Down_Distractor.gif"",""img/Fire_Down_Distractor.gif"",""img/Fire_Down_Distractor.gif"",""img/Fire_Down_Distractor.gif"",""img/Fire_Down_Distractor.gif"",""img/Fire_Down_Distractor.gif"",""img/Fire_Down_Distractor.gif""]","8","targetUp_distractorsDown"
"","","","","","html-keyboard-response","50","216376","0.0-14.0-0.0-0.18","5f7601d14e4cec02189a3b0e","619531dcf66c91622fa1b861","619595b4a818dd99c306a983","null","","null","","","","","main_T1_ITI","","","","",""
"","","","","","visual-search-circle","51","231714","0.0-14.0-0.0-1.18","5f7601d14e4cec02189a3b0e","619531dcf66c91622fa1b861","619595b4a818dd99c306a983","14329.90000000596","","s","true","[[3,253],[163,567],[512,512],[567,163],[253,3]]","false","5","main_T2_Trial","s","img/Fire_Up_Target.gif","[""img/Fire_Down_Distractor.gif"",""img/Fire_Down_Distractor.gif"",""img/Fire_Down_Distractor.gif"",""img/Fire_Down_Distractor.gif"",""img/Fire_Down_Distractor.gif"",""img/Fire_Down_Distractor.gif"",""img/Fire_Down_Distractor.gif"",""img/Fire_Down_Distractor.gif"",""img/Fire_Down_Distractor.gif"",""img/Fire_Down_Distractor.gif"",""img/Fire_Down_Distractor.gif"",""img/Fire_Down_Distractor.gif""]","5","targetUp_distractorsDown"
"","","","","","html-keyboard-response","52","235683","0.0-14.0-0.0-0.19","5f7601d14e4cec02189a3b0e","619531dcf66c91622fa1b861","619595b4a818dd99c306a983","3968.6999999955297","Wow! You've completed 20 out of 160 trials! </p> <p>  </p><p> Take a quick break, then press any key when you're ready to continue."," ","","","","","main_T1_ITI","","","","",""
"","","","","","visual-search-circle","53","237196","0.0-14.0-0.0-1.19","5f7601d14e4cec02189a3b0e","619531dcf66c91622fa1b861","619595b4a818dd99c306a983","496.1000000014901","","s","false","[[600,300],[512,87],[300,0],[87,87],[0,299],[87,512],[299,600],[512,512]]","true","8","main_T2_Trial","d","img/Fire_Down_Target.gif","[""img/Fire_Up_Distractor.gif"",""img/Fire_Up_Distractor.gif"",""img/Fire_Up_Distractor.gif"",""img/Fire_Up_Distractor.gif"",""img/Fire_Up_Distractor.gif"",""img/Fire_Up_Distractor.gif"",""img/Fire_Up_Distractor.gif"",""img/Fire_Up_Distractor.gif"",""img/Fire_Up_Distractor.gif"",""img/Fire_Up_Distractor.gif"",""img/Fire_Up_Distractor.gif"",""img/Fire_Up_Distractor.gif""]","8","targetDown_distractorsUp"
"","","","","","html-keyboard-response","54","237197","0.0-14.0-0.0-0.20","5f7601d14e4cec02189a3b0e","619531dcf66c91622fa1b861","619595b4a818dd99c306a983","null","","null","","","","","main_T1_ITI","","","","",""
"","","","","","visual-search-circle","55","238497","0.0-14.0-0.0-1.20","5f7601d14e4cec02189a3b0e","619531dcf66c91622fa1b861","619595b4a818dd99c306a983","281.79999999701977","","d","true","[[504,519],[519,95],[95,80],[80,504]]","true","4","main_T2_Trial","d","img/Fire_Up_Target.gif","[""img/Fire_Down_Distractor.gif"",""img/Fire_Down_Distractor.gif"",""img/Fire_Down_Distractor.gif"",""img/Fire_Down_Distractor.gif"",""img/Fire_Down_Distractor.gif"",""img/Fire_Down_Distractor.gif"",""img/Fire_Down_Distractor.gif"",""img/Fire_Down_Distractor.gif"",""img/Fire_Down_Distractor.gif"",""img/Fire_Down_Distractor.gif"",""img/Fire_Down_Distractor.gif"",""img/Fire_Down_Distractor.gif""]","4","targetUp_distractorsDown"
"","","","","","html-keyboard-response","56","238498","0.0-14.0-0.0-0.21","5f7601d14e4cec02189a3b0e","619531dcf66c91622fa1b861","619595b4a818dd99c306a983","null","","null","","","","","main_T1_ITI","","","","",""
"","","","","","visual-search-circle","57","239819","0.0-14.0-0.0-1.21","5f7601d14e4cec02189a3b0e","619531dcf66c91622fa1b861","619595b4a818dd99c306a983","307.8999999985099","","s","true","[[289,0],[80,95],[0,310],[95,519],[310,599],[519,504],[599,289],[504,80]]","false","8","main_T2_Trial","s","img/Fire_Down_Target.gif","[""img/Fire_Up_Distractor.gif"",""img/Fire_Up_Distractor.gif"",""img/Fire_Up_Distractor.gif"",""img/Fire_Up_Distractor.gif"",""img/Fire_Up_Distractor.gif"",""img/Fire_Up_Distractor.gif"",""img/Fire_Up_Distractor.gif"",""img/Fire_Up_Distractor.gif"",""img/Fire_Up_Distractor.gif"",""img/Fire_Up_Distractor.gif"",""img/Fire_Up_Distractor.gif"",""img/Fire_Up_Distractor.gif""]","8","targetDown_distractorsUp"
"","","","","","html-keyboard-response","58","239820","0.0-14.0-0.0-0.22","5f7601d14e4cec02189a3b0e","619531dcf66c91622fa1b861","619595b4a818dd99c306a983","null","","null","","","","","main_T1_ITI","","","","",""
"","","","","","visual-search-circle","59","240898","0.0-14.0-0.0-1.22","5f7601d14e4cec02189a3b0e","619531dcf66c91622fa1b861","619595b4a818dd99c306a983","73.5","","s","false","[[168,569],[569,431],[431,30],[30,168]]","true","4","main_T2_Trial","d","img/Fire_Up_Target.gif","[""img/Fire_Down_Distractor.gif"",""img/Fire_Down_Distractor.gif"",""img/Fire_Down_Distractor.gif"",""img/Fire_Down_Distractor.gif"",""img/Fire_Down_Distractor.gif"",""img/Fire_Down_Distractor.gif"",""img/Fire_Down_Distractor.gif"",""img/Fire_Down_Distractor.gif"",""img/Fire_Down_Distractor.gif"",""img/Fire_Down_Distractor.gif"",""img/Fire_Down_Distractor.gif"",""img/Fire_Down_Distractor.gif""]","4","targetUp_distractorsDown"
"","","","","","html-keyboard-response","60","240906","0.0-14.0-0.0-0.23","5f7601d14e4cec02189a3b0e","619531dcf66c91622fa1b861","619595b4a818dd99c306a983","null","","null","","","","","main_T1_ITI","","","","",""
"","","","","","visual-search-circle","61","242340","0.0-14.0-0.0-1.23","5f7601d14e4cec02189a3b0e","619531dcf66c91622fa1b861","619595b4a818dd99c306a983","419","","d","false","[[515,508],[564,159],[247,4],[2,258],[168,569]]","false","5","main_T2_Trial","s","img/Fire_Up_Target.gif","[""img/Fire_Down_Distractor.gif"",""img/Fire_Down_Distractor.gif"",""img/Fire_Down_Distractor.gif"",""img/Fire_Down_Distractor.gif"",""img/Fire_Down_Distractor.gif"",""img/Fire_Down_Distractor.gif"",""img/Fire_Down_Distractor.gif"",""img/Fire_Down_Distractor.gif"",""img/Fire_Down_Distractor.gif"",""img/Fire_Down_Distractor.gif"",""img/Fire_Down_Distractor.gif"",""img/Fire_Down_Distractor.gif""]","5","targetUp_distractorsDown"
"","","","","","html-keyboard-response","62","242353","0.0-14.0-0.0-0.24","5f7601d14e4cec02189a3b0e","619531dcf66c91622fa1b861","619595b4a818dd99c306a983","null","","null","","","","","main_T1_ITI","","","","",""
"","","","","","visual-search-circle","63","243448","0.0-14.0-0.0-1.24","5f7601d14e4cec02189a3b0e","619531dcf66c91622fa1b861","619595b4a818dd99c306a983","76.89999999850988","","s","true","[[28,426],[426,571],[571,173],[173,28]]","false","4","main_T2_Trial","s","img/Fire_Up_Target.gif","[""img/Fire_Down_Distractor.gif"",""img/Fire_Down_Distractor.gif"",""img/Fire_Down_Distractor.gif"",""img/Fire_Down_Distractor.gif"",""img/Fire_Down_Distractor.gif"",""img/Fire_Down_Distractor.gif"",""img/Fire_Down_Distractor.gif"",""img/Fire_Down_Distractor.gif"",""img/Fire_Down_Distractor.gif"",""img/Fire_Down_Distractor.gif"",""img/Fire_Down_Distractor.gif"",""img/Fire_Down_Distractor.gif""]","4","targetUp_distractorsDown"
"","","","","","html-keyboard-response","64","243449","0.0-14.0-0.0-0.25","5f7601d14e4cec02189a3b0e","619531dcf66c91622fa1b861","619595b4a818dd99c306a983","null","","null","","","","","main_T1_ITI","","","","",""
"","","","","","visual-search-circle","65","244703","0.0-14.0-0.0-1.25","5f7601d14e4cec02189a3b0e","619531dcf66c91622fa1b861","619595b4a818dd99c306a983","241","","s","false","[[14,207],[207,585],[585,392],[392,14]]","true","4","main_T2_Trial","d","img/Fire_Up_Target.gif","[""img/Fire_Down_Distractor.gif"",""img/Fire_Down_Distractor.gif"",""img/Fire_Down_Distractor.gif"",""img/Fire_Down_Distractor.gif"",""img/Fire_Down_Distractor.gif"",""img/Fire_Down_Distractor.gif"",""img/Fire_Down_Distractor.gif"",""img/Fire_Down_Distractor.gif"",""img/Fire_Down_Distractor.gif"",""img/Fire_Down_Distractor.gif"",""img/Fire_Down_Distractor.gif"",""img/Fire_Down_Distractor.gif""]","4","targetUp_distractorsDown"
"","","","","","html-keyboard-response","66","244704","0.0-14.0-0.0-0.26","5f7601d14e4cec02189a3b0e","619531dcf66c91622fa1b861","619595b4a818dd99c306a983","null","","null","","","","","main_T1_ITI","","","","",""
"","","","","","visual-search-circle","67","245976","0.0-14.0-0.0-1.26","5f7601d14e4cec02189a3b0e","619531dcf66c91622fa1b861","619595b4a818dd99c306a983","265","","s","false","[[42,145],[73,496],[417,576],[598,273],[367,7]]","true","5","main_T2_Trial","d","img/Fire_Down_Target.gif","[""img/Fire_Up_Distractor.gif"",""img/Fire_Up_Distractor.gif"",""img/Fire_Up_Distractor.gif"",""img/Fire_Up_Distractor.gif"",""img/Fire_Up_Distractor.gif"",""img/Fire_Up_Distractor.gif"",""img/Fire_Up_Distractor.gif"",""img/Fire_Up_Distractor.gif"",""img/Fire_Up_Distractor.gif"",""img/Fire_Up_Distractor.gif"",""img/Fire_Up_Distractor.gif"",""img/Fire_Up_Distractor.gif""]","5","targetDown_distractorsUp"
"","","","","","html-keyboard-response","68","245979","0.0-14.0-0.0-0.27","5f7601d14e4cec02189a3b0e","619531dcf66c91622fa1b861","619595b4a818dd99c306a983","null","","null","","","","","main_T1_ITI","","","","",""
"","","","","","visual-search-circle","69","247107","0.0-14.0-0.0-1.27","5f7601d14e4cec02189a3b0e","619531dcf66c91622fa1b861","619595b4a818dd99c306a983","117.79999999701977","","d","false","[[320,0],[51,132],[30,431],[279,599],[548,467],[569,168]]","false","6","main_T2_Trial","s","img/Fire_Down_Target.gif","[""img/Fire_Up_Distractor.gif"",""img/Fire_Up_Distractor.gif"",""img/Fire_Up_Distractor.gif"",""img/Fire_Up_Distractor.gif"",""img/Fire_Up_Distractor.gif"",""img/Fire_Up_Distractor.gif"",""img/Fire_Up_Distractor.gif"",""img/Fire_Up_Distractor.gif"",""img/Fire_Up_Distractor.gif"",""img/Fire_Up_Distractor.gif"",""img/Fire_Up_Distractor.gif"",""img/Fire_Up_Distractor.gif""]","6","targetDown_distractorsUp"
"","","","","","html-keyboard-response","70","247109","0.0-14.0-0.0-0.28","5f7601d14e4cec02189a3b0e","619531dcf66c91622fa1b861","619595b4a818dd99c306a983","null","","null","","","","","main_T1_ITI","","","","",""
"","","","","","visual-search-circle","71","248186","0.0-14.0-0.0-1.28","5f7601d14e4cec02189a3b0e","619531dcf66c91622fa1b861","619595b4a818dd99c306a983","63.5","","s","true","[[362,593],[598,331],[422,25],[77,99],[40,449]]","false","5","main_T2_Trial","s","img/Fire_Up_Target.gif","[""img/Fire_Down_Distractor.gif"",""img/Fire_Down_Distractor.gif"",""img/Fire_Down_Distractor.gif"",""img/Fire_Down_Distractor.gif"",""img/Fire_Down_Distractor.gif"",""img/Fire_Down_Distractor.gif"",""img/Fire_Down_Distractor.gif"",""img/Fire_Down_Distractor.gif"",""img/Fire_Down_Distractor.gif"",""img/Fire_Down_Distractor.gif"",""img/Fire_Down_Distractor.gif"",""img/Fire_Down_Distractor.gif""]","5","targetUp_distractorsDown"
"","","","","","html-keyboard-response","72","248189","0.0-14.0-0.0-0.29","5f7601d14e4cec02189a3b0e","619531dcf66c91622fa1b861","619595b4a818dd99c306a983","null","","null","","","","","main_T1_ITI","","","","",""
"","","","","","visual-search-circle","73","249388","0.0-14.0-0.0-1.29","5f7601d14e4cec02189a3b0e","619531dcf66c91622fa1b861","619595b4a818dd99c306a983","188.5","","d","true","[[0,315],[99,522],[315,599],[522,500],[599,284],[500,77],[284,0],[77,99]]","true","8","main_T2_Trial","d","img/Fire_Up_Target.gif","[""img/Fire_Down_Distractor.gif"",""img/Fire_Down_Distractor.gif"",""img/Fire_Down_Distractor.gif"",""img/Fire_Down_Distractor.gif"",""img/Fire_Down_Distractor.gif"",""img/Fire_Down_Distractor.gif"",""img/Fire_Down_Distractor.gif"",""img/Fire_Down_Distractor.gif"",""img/Fire_Down_Distractor.gif"",""img/Fire_Down_Distractor.gif"",""img/Fire_Down_Distractor.gif"",""img/Fire_Down_Distractor.gif""]","8","targetUp_distractorsDown"
"","","","","","html-keyboard-response","74","249390","0.0-14.0-0.0-0.30","5f7601d14e4cec02189a3b0e","619531dcf66c91622fa1b861","619595b4a818dd99c306a983","null","","null","","","","","main_T1_ITI","","","","",""
"","","","","","visual-search-circle","75","250412","0.0-14.0-0.0-1.30","5f7601d14e4cec02189a3b0e","619531dcf66c91622fa1b861","619595b4a818dd99c306a983","8.899999998509884","","d","false","[[279,599],[599,320],[320,0],[0,279]]","false","4","main_T2_Trial","s","img/Fire_Up_Target.gif","[""img/Fire_Down_Distractor.gif"",""img/Fire_Down_Distractor.gif"",""img/Fire_Down_Distractor.gif"",""img/Fire_Down_Distractor.gif"",""img/Fire_Down_Distractor.gif"",""img/Fire_Down_Distractor.gif"",""img/Fire_Down_Distractor.gif"",""img/Fire_Down_Distractor.gif"",""img/Fire_Down_Distractor.gif"",""img/Fire_Down_Distractor.gif"",""img/Fire_Down_Distractor.gif"",""img/Fire_Down_Distractor.gif""]","4","targetUp_distractorsDown"
"","","","","","html-keyboard-response","76","250415","0.0-14.0-0.0-0.31","5f7601d14e4cec02189a3b0e","619531dcf66c91622fa1b861","619595b4a818dd99c306a983","null","","null","","","","","main_T1_ITI","","","","",""
"","","","","","visual-search-circle","77","251609","0.0-14.0-0.0-1.31","5f7601d14e4cec02189a3b0e","619531dcf66c91622fa1b861","619595b4a818dd99c306a983","178.89999999850988","","s","true","[[417,23],[23,182],[182,576],[576,417]]","false","4","main_T2_Trial","s","img/Fire_Up_Target.gif","[""img/Fire_Down_Distractor.gif"",""img/Fire_Down_Distractor.gif"",""img/Fire_Down_Distractor.gif"",""img/Fire_Down_Distractor.gif"",""img/Fire_Down_Distractor.gif"",""img/Fire_Down_Distractor.gif"",""img/Fire_Down_Distractor.gif"",""img/Fire_Down_Distractor.gif"",""img/Fire_Down_Distractor.gif"",""img/Fire_Down_Distractor.gif"",""img/Fire_Down_Distractor.gif"",""img/Fire_Down_Distractor.gif""]","4","targetUp_distractorsDown"
"","","","","","html-keyboard-response","78","251610","0.0-14.0-0.0-0.32","5f7601d14e4cec02189a3b0e","619531dcf66c91622fa1b861","619595b4a818dd99c306a983","null","","null","","","","","main_T1_ITI","","","","",""
"","","","","","visual-search-circle","79","253231","0.0-14.0-0.0-1.32","5f7601d14e4cec02189a3b0e","619531dcf66c91622fa1b861","619595b4a818dd99c306a983","607.3999999985099","","d","false","[[279,599],[578,412],[492,70],[141,45],[8,372]]","false","5","main_T2_Trial","s","img/Fire_Up_Target.gif","[""img/Fire_Down_Distractor.gif"",""img/Fire_Down_Distractor.gif"",""img/Fire_Down_Distractor.gif"",""img/Fire_Down_Distractor.gif"",""img/Fire_Down_Distractor.gif"",""img/Fire_Down_Distractor.gif"",""img/Fire_Down_Distractor.gif"",""img/Fire_Down_Distractor.gif"",""img/Fire_Down_Distractor.gif"",""img/Fire_Down_Distractor.gif"",""img/Fire_Down_Distractor.gif"",""img/Fire_Down_Distractor.gif""]","5","targetUp_distractorsDown"
"","","","","","html-keyboard-response","80","253233","0.0-14.0-0.0-0.33","5f7601d14e4cec02189a3b0e","619531dcf66c91622fa1b861","619595b4a818dd99c306a983","null","","null","","","","","main_T1_ITI","","","","",""
"","","","","","visual-search-circle","81","254507","0.0-14.0-0.0-1.33","5f7601d14e4cec02189a3b0e","619531dcf66c91622fa1b861","619595b4a818dd99c306a983","265.29999999701977","","s","false","[[3,253],[78,502],[320,599],[546,470],[587,213],[411,21],[151,39]]","true","7","main_T2_Trial","d","img/Fire_Up_Target.gif","[""img/Fire_Down_Distractor.gif"",""img/Fire_Down_Distractor.gif"",""img/Fire_Down_Distractor.gif"",""img/Fire_Down_Distractor.gif"",""img/Fire_Down_Distractor.gif"",""img/Fire_Down_Distractor.gif"",""img/Fire_Down_Distractor.gif"",""img/Fire_Down_Distractor.gif"",""img/Fire_Down_Distractor.gif"",""img/Fire_Down_Distractor.gif"",""img/Fire_Down_Distractor.gif"",""img/Fire_Down_Distractor.gif""]","7","targetUp_distractorsDown"
"","","","","","html-keyboard-response","82","254509","0.0-14.0-0.0-0.34","5f7601d14e4cec02189a3b0e","619531dcf66c91622fa1b861","619595b4a818dd99c306a983","null","","null","","","","","main_T1_ITI","","","","",""
"","","","","","visual-search-circle","83","255718","0.0-14.0-0.0-1.34","5f7601d14e4cec02189a3b0e","619531dcf66c91622fa1b861","619595b4a818dd99c306a983","198.59999999403954","","s","false","[[382,588],[562,445],[588,217],[445,37],[217,11],[37,154],[11,382],[154,562]]","true","8","main_T2_Trial","d","img/Fire_Up_Target.gif","[""img/Fire_Down_Distractor.gif"",""img/Fire_Down_Distractor.gif"",""img/Fire_Down_Distractor.gif"",""img/Fire_Down_Distractor.gif"",""img/Fire_Down_Distractor.gif"",""img/Fire_Down_Distractor.gif"",""img/Fire_Down_Distractor.gif"",""img/Fire_Down_Distractor.gif"",""img/Fire_Down_Distractor.gif"",""img/Fire_Down_Distractor.gif"",""img/Fire_Down_Distractor.gif"",""img/Fire_Down_Distractor.gif""]","8","targetUp_distractorsDown"
"","","","","","html-keyboard-response","84","255720","0.0-14.0-0.0-0.35","5f7601d14e4cec02189a3b0e","619531dcf66c91622fa1b861","619595b4a818dd99c306a983","null","","null","","","","","main_T1_ITI","","","","",""
"","","","","","visual-search-circle","85","256821","0.0-14.0-0.0-1.35","5f7601d14e4cec02189a3b0e","619531dcf66c91622fa1b861","619595b4a818dd99c306a983","96.89999999850988","","s","true","[[545,127],[212,13],[0,294],[202,583],[539,480]]","false","5","main_T2_Trial","s","img/Fire_Up_Target.gif","[""img/Fire_Down_Distractor.gif"",""img/Fire_Down_Distractor.gif"",""img/Fire_Down_Distractor.gif"",""img/Fire_Down_Distractor.gif"",""img/Fire_Down_Distractor.gif"",""img/Fire_Down_Distractor.gif"",""img/Fire_Down_Distractor.gif"",""img/Fire_Down_Distractor.gif"",""img/Fire_Down_Distractor.gif"",""img/Fire_Down_Distractor.gif"",""img/Fire_Down_Distractor.gif"",""img/Fire_Down_Distractor.gif""]","5","targetUp_distractorsDown"
"","","","","","html-keyboard-response","86","256830","0.0-14.0-0.0-0.36","5f7601d14e4cec02189a3b0e","619531dcf66c91622fa1b861","619595b4a818dd99c306a983","null","","null","","","","","main_T1_ITI","","","","",""
"","","","","","visual-search-circle","87","258186","0.0-14.0-0.0-1.36","5f7601d14e4cec02189a3b0e","619531dcf66c91622fa1b861","619595b4a818dd99c306a983","345.40000000596046","","d","true","[[141,45],[1,265],[87,511],[332,598],[553,460],[583,201],[399,17]]","true","7","main_T2_Trial","d","img/Fire_Up_Target.gif","[""img/Fire_Down_Distractor.gif"",""img/Fire_Down_Distractor.gif"",""img/Fire_Down_Distractor.gif"",""img/Fire_Down_Distractor.gif"",""img/Fire_Down_Distractor.gif"",""img/Fire_Down_Distractor.gif"",""img/Fire_Down_Distractor.gif"",""img/Fire_Down_Distractor.gif"",""img/Fire_Down_Distractor.gif"",""img/Fire_Down_Distractor.gif"",""img/Fire_Down_Distractor.gif"",""img/Fire_Down_Distractor.gif""]","7","targetUp_distractorsDown"
"","","","","","html-keyboard-response","88","258187","0.0-14.0-0.0-0.37","5f7601d14e4cec02189a3b0e","619531dcf66c91622fa1b861","619595b4a818dd99c306a983","null","","null","","","","","main_T1_ITI","","","","",""
"","","","","","visual-search-circle","89","259439","0.0-14.0-0.0-1.37","5f7601d14e4cec02189a3b0e","619531dcf66c91622fa1b861","619595b4a818dd99c306a983","239.5","","d","false","[[192,19],[25,177],[19,407],[177,574],[407,580],[574,422],[580,192],[422,25]]","false","8","main_T2_Trial","s","img/Fire_Down_Target.gif","[""img/Fire_Up_Distractor.gif"",""img/Fire_Up_Distractor.gif"",""img/Fire_Up_Distractor.gif"",""img/Fire_Up_Distractor.gif"",""img/Fire_Up_Distractor.gif"",""img/Fire_Up_Distractor.gif"",""img/Fire_Up_Distractor.gif"",""img/Fire_Up_Distractor.gif"",""img/Fire_Up_Distractor.gif"",""img/Fire_Up_Distractor.gif"",""img/Fire_Up_Distractor.gif"",""img/Fire_Up_Distractor.gif""]","8","targetDown_distractorsUp"
"","","","","","html-keyboard-response","90","259441","0.0-14.0-0.0-0.38","5f7601d14e4cec02189a3b0e","619531dcf66c91622fa1b861","619595b4a818dd99c306a983","null","","null","","","","","main_T1_ITI","","","","",""
"","","","","","visual-search-circle","91","260614","0.0-14.0-0.0-1.38","5f7601d14e4cec02189a3b0e","619531dcf66c91622fa1b861","619595b4a818dd99c306a983","162.09999999403954","","s","true","[[440,564],[586,387],[564,159],[387,13],[159,35],[13,212],[35,440],[212,586]]","false","8","main_T2_Trial","s","img/Fire_Up_Target.gif","[""img/Fire_Down_Distractor.gif"",""img/Fire_Down_Distractor.gif"",""img/Fire_Down_Distractor.gif"",""img/Fire_Down_Distractor.gif"",""img/Fire_Down_Distractor.gif"",""img/Fire_Down_Distractor.gif"",""img/Fire_Down_Distractor.gif"",""img/Fire_Down_Distractor.gif"",""img/Fire_Down_Distractor.gif"",""img/Fire_Down_Distractor.gif"",""img/Fire_Down_Distractor.gif"",""img/Fire_Down_Distractor.gif""]","8","targetUp_distractorsDown"
"","","","","","html-keyboard-response","92","262316","0.0-14.0-0.0-0.39","5f7601d14e4cec02189a3b0e","619531dcf66c91622fa1b861","619595b4a818dd99c306a983","1701.8999999985099","Wow! You've completed 40 out of 160 trials! </p> <p>  </p><p> Take a quick break, then press any key when you're ready to continue."," ","","","","","main_T1_ITI","","","","",""
"","","","","","visual-search-circle","93","263520","0.0-14.0-0.0-1.39","5f7601d14e4cec02189a3b0e","619531dcf66c91622fa1b861","619595b4a818dd99c306a983","195.89999999850988","","s","false","[[154,37],[37,445],[445,562],[562,154]]","true","4","main_T2_Trial","d","img/Fire_Down_Target.gif","[""img/Fire_Up_Distractor.gif"",""img/Fire_Up_Distractor.gif"",""img/Fire_Up_Distractor.gif"",""img/Fire_Up_Distractor.gif"",""img/Fire_Up_Distractor.gif"",""img/Fire_Up_Distractor.gif"",""img/Fire_Up_Distractor.gif"",""img/Fire_Up_Distractor.gif"",""img/Fire_Up_Distractor.gif"",""img/Fire_Up_Distractor.gif"",""img/Fire_Up_Distractor.gif"",""img/Fire_Up_Distractor.gif""]","4","targetDown_distractorsUp"
"","","","","","html-keyboard-response","94","263522","0.0-14.0-0.0-0.40","5f7601d14e4cec02189a3b0e","619531dcf66c91622fa1b861","619595b4a818dd99c306a983","null","","null","","","","","main_T1_ITI","","","","",""
"","","","","","visual-search-circle","95","264725","0.0-14.0-0.0-1.40","5f7601d14e4cec02189a3b0e","619531dcf66c91622fa1b861","619595b4a818dd99c306a983","195.60000000149012","","d","false","[[500,77],[284,0],[77,99],[0,315],[99,522],[315,599],[522,500],[599,284]]","false","8","main_T2_Trial","s","img/Fire_Down_Target.gif","[""img/Fire_Up_Distractor.gif"",""img/Fire_Up_Distractor.gif"",""img/Fire_Up_Distractor.gif"",""img/Fire_Up_Distractor.gif"",""img/Fire_Up_Distractor.gif"",""img/Fire_Up_Distractor.gif"",""img/Fire_Up_Distractor.gif"",""img/Fire_Up_Distractor.gif"",""img/Fire_Up_Distractor.gif"",""img/Fire_Up_Distractor.gif"",""img/Fire_Up_Distractor.gif"",""img/Fire_Up_Distractor.gif""]","8","targetDown_distractorsUp"
"","","","","","html-keyboard-response","96","264728","0.0-14.0-0.0-0.41","5f7601d14e4cec02189a3b0e","619531dcf66c91622fa1b861","619595b4a818dd99c306a983","null","","null","","","","","main_T1_ITI","","","","",""
"","","","","","visual-search-circle","97","265786","0.0-14.0-0.0-1.41","5f7601d14e4cec02189a3b0e","619531dcf66c91622fa1b861","619595b4a818dd99c306a983","41.100000001490116","","s","true","[[99,77],[25,422],[331,598],[593,362],[449,40]]","false","5","main_T2_Trial","s","img/Fire_Down_Target.gif","[""img/Fire_Up_Distractor.gif"",""img/Fire_Up_Distractor.gif"",""img/Fire_Up_Distractor.gif"",""img/Fire_Up_Distractor.gif"",""img/Fire_Up_Distractor.gif"",""img/Fire_Up_Distractor.gif"",""img/Fire_Up_Distractor.gif"",""img/Fire_Up_Distractor.gif"",""img/Fire_Up_Distractor.gif"",""img/Fire_Up_Distractor.gif"",""img/Fire_Up_Distractor.gif"",""img/Fire_Up_Distractor.gif""]","5","targetDown_distractorsUp"
"","","","","","html-keyboard-response","98","265788","0.0-14.0-0.0-0.42","5f7601d14e4cec02189a3b0e","619531dcf66c91622fa1b861","619595b4a818dd99c306a983","null","","null","","","","","main_T1_ITI","","","","",""
"","","","","","visual-search-circle","99","267062","0.0-14.0-0.0-1.42","5f7601d14e4cec02189a3b0e","619531dcf66c91622fa1b861","619595b4a818dd99c306a983","261.5","","s","true","[[123,57],[1,331],[177,574],[476,542],[598,268],[422,25]]","false","6","main_T2_Trial","s","img/Fire_Up_Target.gif","[""img/Fire_Down_Distractor.gif"",""img/Fire_Down_Distractor.gif"",""img/Fire_Down_Distractor.gif"",""img/Fire_Down_Distractor.gif"",""img/Fire_Down_Distractor.gif"",""img/Fire_Down_Distractor.gif"",""img/Fire_Down_Distractor.gif"",""img/Fire_Down_Distractor.gif"",""img/Fire_Down_Distractor.gif"",""img/Fire_Down_Distractor.gif"",""img/Fire_Down_Distractor.gif"",""img/Fire_Down_Distractor.gif""]","6","targetUp_distractorsDown"
"","","","","","html-keyboard-response","100","267063","0.0-14.0-0.0-0.43","5f7601d14e4cec02189a3b0e","619531dcf66c91622fa1b861","619595b4a818dd99c306a983","null","","null","","","","","main_T1_ITI","","","","",""
"","","","","","visual-search-circle","101","268123","0.0-14.0-0.0-1.43","5f7601d14e4cec02189a3b0e","619531dcf66c91622fa1b861","619595b4a818dd99c306a983","50.600000001490116","","d","true","[[40,150],[40,450],[299,600],[559,450],[559,150],[300,0]]","true","6","main_T2_Trial","d","img/Fire_Down_Target.gif","[""img/Fire_Up_Distractor.gif"",""img/Fire_Up_Distractor.gif"",""img/Fire_Up_Distractor.gif"",""img/Fire_Up_Distractor.gif"",""img/Fire_Up_Distractor.gif"",""img/Fire_Up_Distractor.gif"",""img/Fire_Up_Distractor.gif"",""img/Fire_Up_Distractor.gif"",""img/Fire_Up_Distractor.gif"",""img/Fire_Up_Distractor.gif"",""img/Fire_Up_Distractor.gif"",""img/Fire_Up_Distractor.gif""]","6","targetDown_distractorsUp"
"","","","","","html-keyboard-response","102","268152","0.0-14.0-0.0-0.44","5f7601d14e4cec02189a3b0e","619531dcf66c91622fa1b861","619595b4a818dd99c306a983","null","","null","","","","","main_T1_ITI","","","","",""
"","","","","","visual-search-circle","103","269454","0.0-14.0-0.0-1.44","5f7601d14e4cec02189a3b0e","619531dcf66c91622fa1b861","619595b4a818dd99c306a983","284.3999999985099","","d","true","[[268,598],[513,510],[597,264],[457,44],[198,17],[16,203],[47,461]]","true","7","main_T2_Trial","d","img/Fire_Down_Target.gif","[""img/Fire_Up_Distractor.gif"",""img/Fire_Up_Distractor.gif"",""img/Fire_Up_Distractor.gif"",""img/Fire_Up_Distractor.gif"",""img/Fire_Up_Distractor.gif"",""img/Fire_Up_Distractor.gif"",""img/Fire_Up_Distractor.gif"",""img/Fire_Up_Distractor.gif"",""img/Fire_Up_Distractor.gif"",""img/Fire_Up_Distractor.gif"",""img/Fire_Up_Distractor.gif"",""img/Fire_Up_Distractor.gif""]","7","targetDown_distractorsUp"
"","","","","","html-keyboard-response","104","269456","0.0-14.0-0.0-0.45","5f7601d14e4cec02189a3b0e","619531dcf66c91622fa1b861","619595b4a818dd99c306a983","null","","null","","","","","main_T1_ITI","","","","",""
"","","","","","visual-search-circle","105","270770","0.0-14.0-0.0-1.45","5f7601d14e4cec02189a3b0e","619531dcf66c91622fa1b861","619595b4a818dd99c306a983","299.70000000298023","","d","false","[[593,362],[551,136],[362,6],[136,48],[6,237],[48,463],[237,593],[463,551]]","false","8","main_T2_Trial","s","img/Fire_Up_Target.gif","[""img/Fire_Down_Distractor.gif"",""img/Fire_Down_Distractor.gif"",""img/Fire_Down_Distractor.gif"",""img/Fire_Down_Distractor.gif"",""img/Fire_Down_Distractor.gif"",""img/Fire_Down_Distractor.gif"",""img/Fire_Down_Distractor.gif"",""img/Fire_Down_Distractor.gif"",""img/Fire_Down_Distractor.gif"",""img/Fire_Down_Distractor.gif"",""img/Fire_Down_Distractor.gif"",""img/Fire_Down_Distractor.gif""]","8","targetUp_distractorsDown"
"","","","","","html-keyboard-response","106","270772","0.0-14.0-0.0-0.46","5f7601d14e4cec02189a3b0e","619531dcf66c91622fa1b861","619595b4a818dd99c306a983","null","","null","","","","","main_T1_ITI","","","","",""
"","","","","","visual-search-circle","107","271951","0.0-14.0-0.0-1.46","5f7601d14e4cec02189a3b0e","619531dcf66c91622fa1b861","619595b4a818dd99c306a983","164.79999999701977","","s","false","[[173,28],[28,426],[426,571],[571,173]]","true","4","main_T2_Trial","d","img/Fire_Up_Target.gif","[""img/Fire_Down_Distractor.gif"",""img/Fire_Down_Distractor.gif"",""img/Fire_Down_Distractor.gif"",""img/Fire_Down_Distractor.gif"",""img/Fire_Down_Distractor.gif"",""img/Fire_Down_Distractor.gif"",""img/Fire_Down_Distractor.gif"",""img/Fire_Down_Distractor.gif"",""img/Fire_Down_Distractor.gif"",""img/Fire_Down_Distractor.gif"",""img/Fire_Down_Distractor.gif"",""img/Fire_Down_Distractor.gif""]","4","targetUp_distractorsDown"
"","","","","","html-keyboard-response","108","271954","0.0-14.0-0.0-0.47","5f7601d14e4cec02189a3b0e","619531dcf66c91622fa1b861","619595b4a818dd99c306a983","null","","null","","","","","main_T1_ITI","","","","",""
"","","","","","visual-search-circle","109","273219","0.0-14.0-0.0-1.47","5f7601d14e4cec02189a3b0e","619531dcf66c91622fa1b861","619595b4a818dd99c306a983","258.20000000298023","","s","false","[[273,598],[576,417],[496,73],[145,42],[7,367]]","true","5","main_T2_Trial","d","img/Fire_Down_Target.gif","[""img/Fire_Up_Distractor.gif"",""img/Fire_Up_Distractor.gif"",""img/Fire_Up_Distractor.gif"",""img/Fire_Up_Distractor.gif"",""img/Fire_Up_Distractor.gif"",""img/Fire_Up_Distractor.gif"",""img/Fire_Up_Distractor.gif"",""img/Fire_Up_Distractor.gif"",""img/Fire_Up_Distractor.gif"",""img/Fire_Up_Distractor.gif"",""img/Fire_Up_Distractor.gif"",""img/Fire_Up_Distractor.gif""]","5","targetDown_distractorsUp"
"","","","","","html-keyboard-response","110","273221","0.0-14.0-0.0-0.48","5f7601d14e4cec02189a3b0e","619531dcf66c91622fa1b861","619595b4a818dd99c306a983","null","","null","","","","","main_T1_ITI","","","","",""
"","","","","","visual-search-circle","111","274476","0.0-14.0-0.0-1.48","5f7601d14e4cec02189a3b0e","619531dcf66c91622fa1b861","619595b4a818dd99c306a983","251.60000000149012","","d","false","[[136,48],[1,270],[91,515],[338,597],[556,455],[581,196],[394,15]]","false","7","main_T2_Trial","s","img/Fire_Down_Target.gif","[""img/Fire_Up_Distractor.gif"",""img/Fire_Up_Distractor.gif"",""img/Fire_Up_Distractor.gif"",""img/Fire_Up_Distractor.gif"",""img/Fire_Up_Distractor.gif"",""img/Fire_Up_Distractor.gif"",""img/Fire_Up_Distractor.gif"",""img/Fire_Up_Distractor.gif"",""img/Fire_Up_Distractor.gif"",""img/Fire_Up_Distractor.gif"",""img/Fire_Up_Distractor.gif"",""img/Fire_Up_Distractor.gif""]","7","targetDown_distractorsUp"
"","","","","","html-keyboard-response","112","274479","0.0-14.0-0.0-0.49","5f7601d14e4cec02189a3b0e","619531dcf66c91622fa1b861","619595b4a818dd99c306a983","null","","null","","","","","main_T1_ITI","","","","",""
"","","","","","visual-search-circle","113","275520","0.0-14.0-0.0-1.49","5f7601d14e4cec02189a3b0e","619531dcf66c91622fa1b861","619595b4a818dd99c306a983","29.600000001490116","","s","true","[[492,70],[197,18],[4,247],[107,529],[402,581],[595,352]]","false","6","main_T2_Trial","s","img/Fire_Down_Target.gif","[""img/Fire_Up_Distractor.gif"",""img/Fire_Up_Distractor.gif"",""img/Fire_Up_Distractor.gif"",""img/Fire_Up_Distractor.gif"",""img/Fire_Up_Distractor.gif"",""img/Fire_Up_Distractor.gif"",""img/Fire_Up_Distractor.gif"",""img/Fire_Up_Distractor.gif"",""img/Fire_Up_Distractor.gif"",""img/Fire_Up_Distractor.gif"",""img/Fire_Up_Distractor.gif"",""img/Fire_Up_Distractor.gif""]","6","targetDown_distractorsUp"
"","","","","","html-keyboard-response","114","275522","0.0-14.0-0.0-0.50","5f7601d14e4cec02189a3b0e","619531dcf66c91622fa1b861","619595b4a818dd99c306a983","null","","null","","","","","main_T1_ITI","","","","",""
"","","","","","visual-search-circle","115","276898","0.0-14.0-0.0-1.50","5f7601d14e4cec02189a3b0e","619531dcf66c91622fa1b861","619595b4a818dd99c306a983","365.1000000014901","","d","true","[[0,279],[187,578],[529,492],[554,141],[227,8]]","true","5","main_T2_Trial","d","img/Fire_Down_Target.gif","[""img/Fire_Up_Distractor.gif"",""img/Fire_Up_Distractor.gif"",""img/Fire_Up_Distractor.gif"",""img/Fire_Up_Distractor.gif"",""img/Fire_Up_Distractor.gif"",""img/Fire_Up_Distractor.gif"",""img/Fire_Up_Distractor.gif"",""img/Fire_Up_Distractor.gif"",""img/Fire_Up_Distractor.gif"",""img/Fire_Up_Distractor.gif"",""img/Fire_Up_Distractor.gif"",""img/Fire_Up_Distractor.gif""]","5","targetDown_distractorsUp"
"","","","","","html-keyboard-response","116","276900","0.0-14.0-0.0-0.51","5f7601d14e4cec02189a3b0e","619531dcf66c91622fa1b861","619595b4a818dd99c306a983","null","","null","","","","","main_T1_ITI","","","","",""
"","","","","","visual-search-circle","117","278199","0.0-14.0-0.0-1.51","5f7601d14e4cec02189a3b0e","619531dcf66c91622fa1b861","619595b4a818dd99c306a983","285.79999999701977","","d","false","[[25,422],[224,590],[479,540],[599,308],[493,71],[242,5],[33,161]]","false","7","main_T2_Trial","s","img/Fire_Up_Target.gif","[""img/Fire_Down_Distractor.gif"",""img/Fire_Down_Distractor.gif"",""img/Fire_Down_Distractor.gif"",""img/Fire_Down_Distractor.gif"",""img/Fire_Down_Distractor.gif"",""img/Fire_Down_Distractor.gif"",""img/Fire_Down_Distractor.gif"",""img/Fire_Down_Distractor.gif"",""img/Fire_Down_Distractor.gif"",""img/Fire_Down_Distractor.gif"",""img/Fire_Down_Distractor.gif"",""img/Fire_Down_Distractor.gif""]","7","targetUp_distractorsDown"
"","","","","","html-keyboard-response","118","278200","0.0-14.0-0.0-0.52","5f7601d14e4cec02189a3b0e","619531dcf66c91622fa1b861","619595b4a818dd99c306a983","null","","null","","","","","main_T1_ITI","","","","",""
"","","","","","visual-search-circle","119","279410","0.0-14.0-0.0-1.52","5f7601d14e4cec02189a3b0e","619531dcf66c91622fa1b861","619595b4a818dd99c306a983","198.89999999850988","","d","false","[[454,42],[227,8],[42,145],[8,372],[145,557],[372,591],[557,454],[591,227]]","false","8","main_T2_Trial","s","img/Fire_Down_Target.gif","[""img/Fire_Up_Distractor.gif"",""img/Fire_Up_Distractor.gif"",""img/Fire_Up_Distractor.gif"",""img/Fire_Up_Distractor.gif"",""img/Fire_Up_Distractor.gif"",""img/Fire_Up_Distractor.gif"",""img/Fire_Up_Distractor.gif"",""img/Fire_Up_Distractor.gif"",""img/Fire_Up_Distractor.gif"",""img/Fire_Up_Distractor.gif"",""img/Fire_Up_Distractor.gif"",""img/Fire_Up_Distractor.gif""]","8","targetDown_distractorsUp"
"","","","","","html-keyboard-response","120","279414","0.0-14.0-0.0-0.53","5f7601d14e4cec02189a3b0e","619531dcf66c91622fa1b861","619595b4a818dd99c306a983","null","","null","","","","","main_T1_ITI","","","","",""
"","","","","","visual-search-circle","121","280707","0.0-14.0-0.0-1.53","5f7601d14e4cec02189a3b0e","619531dcf66c91622fa1b861","619595b4a818dd99c306a983","274.09999999403954","","d","true","[[450,559],[589,377],[559,150],[377,10],[150,40],[10,222],[40,449],[222,589]]","true","8","main_T2_Trial","d","img/Fire_Down_Target.gif","[""img/Fire_Up_Distractor.gif"",""img/Fire_Up_Distractor.gif"",""img/Fire_Up_Distractor.gif"",""img/Fire_Up_Distractor.gif"",""img/Fire_Up_Distractor.gif"",""img/Fire_Up_Distractor.gif"",""img/Fire_Up_Distractor.gif"",""img/Fire_Up_Distractor.gif"",""img/Fire_Up_Distractor.gif"",""img/Fire_Up_Distractor.gif"",""img/Fire_Up_Distractor.gif"",""img/Fire_Up_Distractor.gif""]","8","targetDown_distractorsUp"
"","","","","","html-keyboard-response","122","280709","0.0-14.0-0.0-0.54","5f7601d14e4cec02189a3b0e","619531dcf66c91622fa1b861","619595b4a818dd99c306a983","null","","null","","","","","main_T1_ITI","","","","",""
"","","","","","visual-search-circle","123","281992","0.0-14.0-0.0-1.54","5f7601d14e4cec02189a3b0e","619531dcf66c91622fa1b861","619595b4a818dd99c306a983","279.3999999985099","","d","true","[[30,431],[279,599],[548,467],[569,168],[320,0],[51,132]]","true","6","main_T2_Trial","d","img/Fire_Down_Target.gif","[""img/Fire_Up_Distractor.gif"",""img/Fire_Up_Distractor.gif"",""img/Fire_Up_Distractor.gif"",""img/Fire_Up_Distractor.gif"",""img/Fire_Up_Distractor.gif"",""img/Fire_Up_Distractor.gif"",""img/Fire_Up_Distractor.gif"",""img/Fire_Up_Distractor.gif"",""img/Fire_Up_Distractor.gif"",""img/Fire_Up_Distractor.gif"",""img/Fire_Up_Distractor.gif"",""img/Fire_Up_Distractor.gif""]","6","targetDown_distractorsUp"
"","","","","","html-keyboard-response","124","281994","0.0-14.0-0.0-0.55","5f7601d14e4cec02189a3b0e","619531dcf66c91622fa1b861","619595b4a818dd99c306a983","null","","null","","","","","main_T1_ITI","","","","",""
"","","","","","visual-search-circle","125","283842","0.0-14.0-0.0-1.55","5f7601d14e4cec02189a3b0e","619531dcf66c91622fa1b861","619595b4a818dd99c306a983","835","","s","true","[[599,310],[458,45],[159,35],[0,289],[141,554],[440,564]]","false","6","main_T2_Trial","s","img/Fire_Up_Target.gif","[""img/Fire_Down_Distractor.gif"",""img/Fire_Down_Distractor.gif"",""img/Fire_Down_Distractor.gif"",""img/Fire_Down_Distractor.gif"",""img/Fire_Down_Distractor.gif"",""img/Fire_Down_Distractor.gif"",""img/Fire_Down_Distractor.gif"",""img/Fire_Down_Distractor.gif"",""img/Fire_Down_Distractor.gif"",""img/Fire_Down_Distractor.gif"",""img/Fire_Down_Distractor.gif"",""img/Fire_Down_Distractor.gif""]","6","targetUp_distractorsDown"
"","","","","","html-keyboard-response","126","283844","0.0-14.0-0.0-0.56","5f7601d14e4cec02189a3b0e","619531dcf66c91622fa1b861","619595b4a818dd99c306a983","null","","null","","","","","main_T1_ITI","","","","",""
"","","","","","visual-search-circle","127","285004","0.0-14.0-0.0-1.56","5f7601d14e4cec02189a3b0e","619531dcf66c91622fa1b861","619595b4a818dd99c306a983","152.80000000447035","","s","true","[[145,42],[7,367],[273,598],[576,417],[496,73]]","false","5","main_T2_Trial","s","img/Fire_Up_Target.gif","[""img/Fire_Down_Distractor.gif"",""img/Fire_Down_Distractor.gif"",""img/Fire_Down_Distractor.gif"",""img/Fire_Down_Distractor.gif"",""img/Fire_Down_Distractor.gif"",""img/Fire_Down_Distractor.gif"",""img/Fire_Down_Distractor.gif"",""img/Fire_Down_Distractor.gif"",""img/Fire_Down_Distractor.gif"",""img/Fire_Down_Distractor.gif"",""img/Fire_Down_Distractor.gif"",""img/Fire_Down_Distractor.gif""]","5","targetUp_distractorsDown"
"","","","","","html-keyboard-response","128","285006","0.0-14.0-0.0-0.57","5f7601d14e4cec02189a3b0e","619531dcf66c91622fa1b861","619595b4a818dd99c306a983","null","","null","","","","","main_T1_ITI","","","","",""
"","","","","","visual-search-circle","129","286335","0.0-14.0-0.0-1.57","5f7601d14e4cec02189a3b0e","619531dcf66c91622fa1b861","619595b4a818dd99c306a983","314.69999999552965","","d","true","[[182,23],[2,263],[119,539],[417,576],[597,336],[480,60]]","true","6","main_T2_Trial","d","img/Fire_Up_Target.gif","[""img/Fire_Down_Distractor.gif"",""img/Fire_Down_Distractor.gif"",""img/Fire_Down_Distractor.gif"",""img/Fire_Down_Distractor.gif"",""img/Fire_Down_Distractor.gif"",""img/Fire_Down_Distractor.gif"",""img/Fire_Down_Distractor.gif"",""img/Fire_Down_Distractor.gif"",""img/Fire_Down_Distractor.gif"",""img/Fire_Down_Distractor.gif"",""img/Fire_Down_Distractor.gif"",""img/Fire_Down_Distractor.gif""]","6","targetUp_distractorsDown"
"","","","","","html-keyboard-response","130","286338","0.0-14.0-0.0-0.58","5f7601d14e4cec02189a3b0e","619531dcf66c91622fa1b861","619595b4a818dd99c306a983","null","","null","","","","","main_T1_ITI","","","","",""
"","","","","","visual-search-circle","131","287371","0.0-14.0-0.0-1.58","5f7601d14e4cec02189a3b0e","619531dcf66c91622fa1b861","619595b4a818dd99c306a983","21","","s","true","[[422,25],[77,99],[40,450],[362,593],[598,331]]","false","5","main_T2_Trial","s","img/Fire_Up_Target.gif","[""img/Fire_Down_Distractor.gif"",""img/Fire_Down_Distractor.gif"",""img/Fire_Down_Distractor.gif"",""img/Fire_Down_Distractor.gif"",""img/Fire_Down_Distractor.gif"",""img/Fire_Down_Distractor.gif"",""img/Fire_Down_Distractor.gif"",""img/Fire_Down_Distractor.gif"",""img/Fire_Down_Distractor.gif"",""img/Fire_Down_Distractor.gif"",""img/Fire_Down_Distractor.gif"",""img/Fire_Down_Distractor.gif""]","5","targetUp_distractorsDown"
"","","","","","html-keyboard-response","132","288206","0.0-14.0-0.0-0.59","5f7601d14e4cec02189a3b0e","619531dcf66c91622fa1b861","619595b4a818dd99c306a983","834.3999999985099","Wow! You've completed 60 out of 160 trials! </p> <p>  </p><p> Take a quick break, then press any key when you're ready to continue.","d","","","","","main_T1_ITI","","","","",""
"","","","","","visual-search-circle","133","289547","0.0-14.0-0.0-1.59","5f7601d14e4cec02189a3b0e","619531dcf66c91622fa1b861","619595b4a818dd99c306a983","324.70000000298023","","s","false","[[103,73],[5,357],[202,583],[496,526],[594,242],[397,16]]","true","6","main_T2_Trial","d","img/Fire_Down_Target.gif","[""img/Fire_Up_Distractor.gif"",""img/Fire_Up_Distractor.gif"",""img/Fire_Up_Distractor.gif"",""img/Fire_Up_Distractor.gif"",""img/Fire_Up_Distractor.gif"",""img/Fire_Up_Distractor.gif"",""img/Fire_Up_Distractor.gif"",""img/Fire_Up_Distractor.gif"",""img/Fire_Up_Distractor.gif"",""img/Fire_Up_Distractor.gif"",""img/Fire_Up_Distractor.gif"",""img/Fire_Up_Distractor.gif""]","6","targetDown_distractorsUp"
"","","","","","html-keyboard-response","134","289549","0.0-14.0-0.0-0.60","5f7601d14e4cec02189a3b0e","619531dcf66c91622fa1b861","619595b4a818dd99c306a983","null","","null","","","","","main_T1_ITI","","","","",""
"","","","","","visual-search-circle","135","290884","0.0-14.0-0.0-1.60","5f7601d14e4cec02189a3b0e","619531dcf66c91622fa1b861","619595b4a818dd99c306a983","319.6000000014901","","d","false","[[599,294],[387,13],[54,127],[60,480],[397,583]]","false","5","main_T2_Trial","s","img/Fire_Down_Target.gif","[""img/Fire_Up_Distractor.gif"",""img/Fire_Up_Distractor.gif"",""img/Fire_Up_Distractor.gif"",""img/Fire_Up_Distractor.gif"",""img/Fire_Up_Distractor.gif"",""img/Fire_Up_Distractor.gif"",""img/Fire_Up_Distractor.gif"",""img/Fire_Up_Distractor.gif"",""img/Fire_Up_Distractor.gif"",""img/Fire_Up_Distractor.gif"",""img/Fire_Up_Distractor.gif"",""img/Fire_Up_Distractor.gif""]","5","targetDown_distractorsUp"
"","","","","","html-keyboard-response","136","290893","0.0-14.0-0.0-0.61","5f7601d14e4cec02189a3b0e","619531dcf66c91622fa1b861","619595b4a818dd99c306a983","null","","null","","","","","main_T1_ITI","","","","",""
"","","","","","visual-search-circle","137","292583","0.0-14.0-0.0-1.61","5f7601d14e4cec02189a3b0e","619531dcf66c91622fa1b861","619595b4a818dd99c306a983","682.2999999970198","","d","true","[[440,564],[586,387],[564,159],[387,13],[159,35],[13,212],[35,440],[212,586]]","true","8","main_T2_Trial","d","img/Fire_Down_Target.gif","[""img/Fire_Up_Distractor.gif"",""img/Fire_Up_Distractor.gif"",""img/Fire_Up_Distractor.gif"",""img/Fire_Up_Distractor.gif"",""img/Fire_Up_Distractor.gif"",""img/Fire_Up_Distractor.gif"",""img/Fire_Up_Distractor.gif"",""img/Fire_Up_Distractor.gif"",""img/Fire_Up_Distractor.gif"",""img/Fire_Up_Distractor.gif"",""img/Fire_Up_Distractor.gif"",""img/Fire_Up_Distractor.gif""]","8","targetDown_distractorsUp"
"","","","","","html-keyboard-response","138","292585","0.0-14.0-0.0-0.62","5f7601d14e4cec02189a3b0e","619531dcf66c91622fa1b861","619595b4a818dd99c306a983","null","","null","","","","","main_T1_ITI","","","","",""
"","","","","","visual-search-circle","139","293883","0.0-14.0-0.0-1.62","5f7601d14e4cec02189a3b0e","619531dcf66c91622fa1b861","619595b4a818dd99c306a983","280.1000000014901","","s","true","[[387,13],[95,80],[7,367],[212,586],[504,519],[592,232]]","false","6","main_T2_Trial","s","img/Fire_Down_Target.gif","[""img/Fire_Up_Distractor.gif"",""img/Fire_Up_Distractor.gif"",""img/Fire_Up_Distractor.gif"",""img/Fire_Up_Distractor.gif"",""img/Fire_Up_Distractor.gif"",""img/Fire_Up_Distractor.gif"",""img/Fire_Up_Distractor.gif"",""img/Fire_Up_Distractor.gif"",""img/Fire_Up_Distractor.gif"",""img/Fire_Up_Distractor.gif"",""img/Fire_Up_Distractor.gif"",""img/Fire_Up_Distractor.gif""]","6","targetDown_distractorsUp"
"","","","","","html-keyboard-response","140","293887","0.0-14.0-0.0-0.63","5f7601d14e4cec02189a3b0e","619531dcf66c91622fa1b861","619595b4a818dd99c306a983","null","","null","","","","","main_T1_ITI","","","","",""
"","","","","","visual-search-circle","141","295286","0.0-14.0-0.0-1.63","5f7601d14e4cec02189a3b0e","619531dcf66c91622fa1b861","619595b4a818dd99c306a983","387.3999999985099","","s","false","[[60,480],[480,539],[539,119],[119,60]]","true","4","main_T2_Trial","d","img/Fire_Up_Target.gif","[""img/Fire_Down_Distractor.gif"",""img/Fire_Down_Distractor.gif"",""img/Fire_Down_Distractor.gif"",""img/Fire_Down_Distractor.gif"",""img/Fire_Down_Distractor.gif"",""img/Fire_Down_Distractor.gif"",""img/Fire_Down_Distractor.gif"",""img/Fire_Down_Distractor.gif"",""img/Fire_Down_Distractor.gif"",""img/Fire_Down_Distractor.gif"",""img/Fire_Down_Distractor.gif"",""img/Fire_Down_Distractor.gif""]","4","targetUp_distractorsDown"
"","","","","","html-keyboard-response","142","295288","0.0-14.0-0.0-0.64","5f7601d14e4cec02189a3b0e","619531dcf66c91622fa1b861","619595b4a818dd99c306a983","null","","null","","","","","main_T1_ITI","","","","",""
"","","","","","visual-search-circle","143","296486","0.0-14.0-0.0-1.64","5f7601d14e4cec02189a3b0e","619531dcf66c91622fa1b861","619595b4a818dd99c306a983","191.89999999850988","","d","false","[[450,559],[600,300],[449,40],[150,40],[0,299],[150,559]]","false","6","main_T2_Trial","s","img/Fire_Up_Target.gif","[""img/Fire_Down_Distractor.gif"",""img/Fire_Down_Distractor.gif"",""img/Fire_Down_Distractor.gif"",""img/Fire_Down_Distractor.gif"",""img/Fire_Down_Distractor.gif"",""img/Fire_Down_Distractor.gif"",""img/Fire_Down_Distractor.gif"",""img/Fire_Down_Distractor.gif"",""img/Fire_Down_Distractor.gif"",""img/Fire_Down_Distractor.gif"",""img/Fire_Down_Distractor.gif"",""img/Fire_Down_Distractor.gif""]","6","targetUp_distractorsDown"
"","","","","","html-keyboard-response","144","296488","0.0-14.0-0.0-0.65","5f7601d14e4cec02189a3b0e","619531dcf66c91622fa1b861","619595b4a818dd99c306a983","null","","null","","","","","main_T1_ITI","","","","",""
"","","","","","visual-search-circle","145","297709","0.0-14.0-0.0-1.65","5f7601d14e4cec02189a3b0e","619531dcf66c91622fa1b861","619595b4a818dd99c306a983","206.70000000298023","","s","false","[[13,387],[159,564],[387,586],[564,440],[586,212],[440,35],[212,13],[35,159]]","true","8","main_T2_Trial","d","img/Fire_Down_Target.gif","[""img/Fire_Up_Distractor.gif"",""img/Fire_Up_Distractor.gif"",""img/Fire_Up_Distractor.gif"",""img/Fire_Up_Distractor.gif"",""img/Fire_Up_Distractor.gif"",""img/Fire_Up_Distractor.gif"",""img/Fire_Up_Distractor.gif"",""img/Fire_Up_Distractor.gif"",""img/Fire_Up_Distractor.gif"",""img/Fire_Up_Distractor.gif"",""img/Fire_Up_Distractor.gif"",""img/Fire_Up_Distractor.gif""]","8","targetDown_distractorsUp"
"","","","","","html-keyboard-response","146","297711","0.0-14.0-0.0-0.66","5f7601d14e4cec02189a3b0e","619531dcf66c91622fa1b861","619595b4a818dd99c306a983","null","","null","","","","","main_T1_ITI","","","","",""
"","","","","","visual-search-circle","147","301010","0.0-14.0-0.0-1.66","5f7601d14e4cec02189a3b0e","619531dcf66c91622fa1b861","619595b4a818dd99c306a983","2283.7000000029802","","s","true","[[598,331],[476,57],[177,25],[1,268],[123,542],[422,574]]","false","6","main_T2_Trial","s","img/Fire_Up_Target.gif","[""img/Fire_Down_Distractor.gif"",""img/Fire_Down_Distractor.gif"",""img/Fire_Down_Distractor.gif"",""img/Fire_Down_Distractor.gif"",""img/Fire_Down_Distractor.gif"",""img/Fire_Down_Distractor.gif"",""img/Fire_Down_Distractor.gif"",""img/Fire_Down_Distractor.gif"",""img/Fire_Down_Distractor.gif"",""img/Fire_Down_Distractor.gif"",""img/Fire_Down_Distractor.gif"",""img/Fire_Down_Distractor.gif""]","6","targetUp_distractorsDown"
"","","","","","html-keyboard-response","148","301016","0.0-14.0-0.0-0.67","5f7601d14e4cec02189a3b0e","619531dcf66c91622fa1b861","619595b4a818dd99c306a983","null","","null","","","","","main_T1_ITI","","","","",""
"","","","","","visual-search-circle","149","302900","0.0-14.0-0.0-1.67","5f7601d14e4cec02189a3b0e","619531dcf66c91622fa1b861","619595b4a818dd99c306a983","876","","d","true","[[576,182],[182,23],[23,417],[417,576]]","true","4","main_T2_Trial","d","img/Fire_Up_Target.gif","[""img/Fire_Down_Distractor.gif"",""img/Fire_Down_Distractor.gif"",""img/Fire_Down_Distractor.gif"",""img/Fire_Down_Distractor.gif"",""img/Fire_Down_Distractor.gif"",""img/Fire_Down_Distractor.gif"",""img/Fire_Down_Distractor.gif"",""img/Fire_Down_Distractor.gif"",""img/Fire_Down_Distractor.gif"",""img/Fire_Down_Distractor.gif"",""img/Fire_Down_Distractor.gif"",""img/Fire_Down_Distractor.gif""]","4","targetUp_distractorsDown"
"","","","","","html-keyboard-response","150","302904","0.0-14.0-0.0-0.68","5f7601d14e4cec02189a3b0e","619531dcf66c91622fa1b861","619595b4a818dd99c306a983","null","","null","","","","","main_T1_ITI","","","","",""
"","","","","","visual-search-circle","151","304993","0.0-14.0-0.0-1.68","5f7601d14e4cec02189a3b0e","619531dcf66c91622fa1b861","619595b4a818dd99c306a983","1082.8999999985099","","d","true","[[14,392],[237,593],[522,500],[585,207],[362,6],[77,99]]","true","6","main_T2_Trial","d","img/Fire_Up_Target.gif","[""img/Fire_Down_Distractor.gif"",""img/Fire_Down_Distractor.gif"",""img/Fire_Down_Distractor.gif"",""img/Fire_Down_Distractor.gif"",""img/Fire_Down_Distractor.gif"",""img/Fire_Down_Distractor.gif"",""img/Fire_Down_Distractor.gif"",""img/Fire_Down_Distractor.gif"",""img/Fire_Down_Distractor.gif"",""img/Fire_Down_Distractor.gif"",""img/Fire_Down_Distractor.gif"",""img/Fire_Down_Distractor.gif""]","6","targetUp_distractorsDown"
"","","","","","html-keyboard-response","152","304996","0.0-14.0-0.0-0.69","5f7601d14e4cec02189a3b0e","619531dcf66c91622fa1b861","619595b4a818dd99c306a983","null","","null","","","","","main_T1_ITI","","","","",""
"","","","","","visual-search-circle","153","306326","0.0-14.0-0.0-1.69","5f7601d14e4cec02189a3b0e","619531dcf66c91622fa1b861","619595b4a818dd99c306a983","311","","s","false","[[77,99],[4,349],[153,562],[413,577],[587,384],[545,127],[317,0]]","true","7","main_T2_Trial","d","img/Fire_Up_Target.gif","[""img/Fire_Down_Distractor.gif"",""img/Fire_Down_Distractor.gif"",""img/Fire_Down_Distractor.gif"",""img/Fire_Down_Distractor.gif"",""img/Fire_Down_Distractor.gif"",""img/Fire_Down_Distractor.gif"",""img/Fire_Down_Distractor.gif"",""img/Fire_Down_Distractor.gif"",""img/Fire_Down_Distractor.gif"",""img/Fire_Down_Distractor.gif"",""img/Fire_Down_Distractor.gif"",""img/Fire_Down_Distractor.gif""]","7","targetUp_distractorsDown"
"","","","","","html-keyboard-response","154","306328","0.0-14.0-0.0-0.70","5f7601d14e4cec02189a3b0e","619531dcf66c91622fa1b861","619595b4a818dd99c306a983","null","","null","","","","","main_T1_ITI","","","","",""
"","","","","","visual-search-circle","155","308054","0.0-14.0-0.0-1.70","5f7601d14e4cec02189a3b0e","619531dcf66c91622fa1b861","619595b4a818dd99c306a983","712.6000000014901","","s","true","[[0,305],[117,537],[371,591],[572,425],[567,165],[361,6],[108,68]]","false","7","main_T2_Trial","s","img/Fire_Up_Target.gif","[""img/Fire_Down_Distractor.gif"",""img/Fire_Down_Distractor.gif"",""img/Fire_Down_Distractor.gif"",""img/Fire_Down_Distractor.gif"",""img/Fire_Down_Distractor.gif"",""img/Fire_Down_Distractor.gif"",""img/Fire_Down_Distractor.gif"",""img/Fire_Down_Distractor.gif"",""img/Fire_Down_Distractor.gif"",""img/Fire_Down_Distractor.gif"",""img/Fire_Down_Distractor.gif"",""img/Fire_Down_Distractor.gif""]","7","targetUp_distractorsDown"
"","","","","","html-keyboard-response","156","308057","0.0-14.0-0.0-0.71","5f7601d14e4cec02189a3b0e","619531dcf66c91622fa1b861","619595b4a818dd99c306a983","null","","null","","","","","main_T1_ITI","","","","",""
"","","","","","visual-search-circle","157","310633","0.0-14.0-0.0-1.71","5f7601d14e4cec02189a3b0e","619531dcf66c91622fa1b861","619595b4a818dd99c306a983","1567.1000000014901","","d","true","[[445,562],[562,154],[154,37],[37,445]]","true","4","main_T2_Trial","d","img/Fire_Down_Target.gif","[""img/Fire_Up_Distractor.gif"",""img/Fire_Up_Distractor.gif"",""img/Fire_Up_Distractor.gif"",""img/Fire_Up_Distractor.gif"",""img/Fire_Up_Distractor.gif"",""img/Fire_Up_Distractor.gif"",""img/Fire_Up_Distractor.gif"",""img/Fire_Up_Distractor.gif"",""img/Fire_Up_Distractor.gif"",""img/Fire_Up_Distractor.gif"",""img/Fire_Up_Distractor.gif"",""img/Fire_Up_Distractor.gif""]","4","targetDown_distractorsUp"
"","","","","","html-keyboard-response","158","310636","0.0-14.0-0.0-0.72","5f7601d14e4cec02189a3b0e","619531dcf66c91622fa1b861","619595b4a818dd99c306a983","null","","null","","","","","main_T1_ITI","","","","",""
"","","","","","visual-search-circle","159","313287","0.0-14.0-0.0-1.72","5f7601d14e4cec02189a3b0e","619531dcf66c91622fa1b861","619595b4a818dd99c306a983","1635.8000000044703","","d","true","[[526,496],[583,202],[357,5],[73,103],[16,397],[242,594]]","true","6","main_T2_Trial","d","img/Fire_Up_Target.gif","[""img/Fire_Down_Distractor.gif"",""img/Fire_Down_Distractor.gif"",""img/Fire_Down_Distractor.gif"",""img/Fire_Down_Distractor.gif"",""img/Fire_Down_Distractor.gif"",""img/Fire_Down_Distractor.gif"",""img/Fire_Down_Distractor.gif"",""img/Fire_Down_Distractor.gif"",""img/Fire_Down_Distractor.gif"",""img/Fire_Down_Distractor.gif"",""img/Fire_Down_Distractor.gif"",""img/Fire_Down_Distractor.gif""]","6","targetUp_distractorsDown"
"","","","","","html-keyboard-response","160","313289","0.0-14.0-0.0-0.73","5f7601d14e4cec02189a3b0e","619531dcf66c91622fa1b861","619595b4a818dd99c306a983","null","","null","","","","","main_T1_ITI","","","","",""
"","","","","","visual-search-circle","161","316236","0.0-14.0-0.0-1.73","5f7601d14e4cec02189a3b0e","619531dcf66c91622fa1b861","619595b4a818dd99c306a983","1931.6999999955297","","s","false","[[472,54],[119,60],[16,397],[305,599],[586,387]]","true","5","main_T2_Trial","d","img/Fire_Down_Target.gif","[""img/Fire_Up_Distractor.gif"",""img/Fire_Up_Distractor.gif"",""img/Fire_Up_Distractor.gif"",""img/Fire_Up_Distractor.gif"",""img/Fire_Up_Distractor.gif"",""img/Fire_Up_Distractor.gif"",""img/Fire_Up_Distractor.gif"",""img/Fire_Up_Distractor.gif"",""img/Fire_Up_Distractor.gif"",""img/Fire_Up_Distractor.gif"",""img/Fire_Up_Distractor.gif"",""img/Fire_Up_Distractor.gif""]","5","targetDown_distractorsUp"
"","","","","","html-keyboard-response","162","316239","0.0-14.0-0.0-0.74","5f7601d14e4cec02189a3b0e","619531dcf66c91622fa1b861","619595b4a818dd99c306a983","null","","null","","","","","main_T1_ITI","","","","",""
"","","","","","visual-search-circle","163","317904","0.0-14.0-0.0-1.74","5f7601d14e4cec02189a3b0e","619531dcf66c91622fa1b861","619595b4a818dd99c306a983","645.7000000029802","","s","true","[[14,207],[49,465],[273,598],[516,507],[597,259],[453,42],[194,19]]","false","7","main_T2_Trial","s","img/Fire_Down_Target.gif","[""img/Fire_Up_Distractor.gif"",""img/Fire_Up_Distractor.gif"",""img/Fire_Up_Distractor.gif"",""img/Fire_Up_Distractor.gif"",""img/Fire_Up_Distractor.gif"",""img/Fire_Up_Distractor.gif"",""img/Fire_Up_Distractor.gif"",""img/Fire_Up_Distractor.gif"",""img/Fire_Up_Distractor.gif"",""img/Fire_Up_Distractor.gif"",""img/Fire_Up_Distractor.gif"",""img/Fire_Up_Distractor.gif""]","7","targetDown_distractorsUp"
"","","","","","html-keyboard-response","164","317908","0.0-14.0-0.0-0.75","5f7601d14e4cec02189a3b0e","619531dcf66c91622fa1b861","619595b4a818dd99c306a983","null","","null","","","","","main_T1_ITI","","","","",""
"","","","","","visual-search-circle","165","319745","0.0-14.0-0.0-1.75","5f7601d14e4cec02189a3b0e","619531dcf66c91622fa1b861","619595b4a818dd99c306a983","824.6000000014901","","s","true","[[545,127],[273,1],[28,173],[54,472],[326,598],[571,426]]","false","6","main_T2_Trial","s","img/Fire_Up_Target.gif","[""img/Fire_Down_Distractor.gif"",""img/Fire_Down_Distractor.gif"",""img/Fire_Down_Distractor.gif"",""img/Fire_Down_Distractor.gif"",""img/Fire_Down_Distractor.gif"",""img/Fire_Down_Distractor.gif"",""img/Fire_Down_Distractor.gif"",""img/Fire_Down_Distractor.gif"",""img/Fire_Down_Distractor.gif"",""img/Fire_Down_Distractor.gif"",""img/Fire_Down_Distractor.gif"",""img/Fire_Down_Distractor.gif""]","6","targetUp_distractorsDown"
"","","","","","html-keyboard-response","166","319748","0.0-14.0-0.0-0.76","5f7601d14e4cec02189a3b0e","619531dcf66c91622fa1b861","619595b4a818dd99c306a983","null","","null","","","","","main_T1_ITI","","","","",""
"","","","","","visual-search-circle","167","321676","0.0-14.0-0.0-1.76","5f7601d14e4cec02189a3b0e","619531dcf66c91622fa1b861","619595b4a818dd99c306a983","915.1999999955297","","s","true","[[123,57],[14,392],[299,600],[585,392],[476,57]]","false","5","main_T2_Trial","s","img/Fire_Down_Target.gif","[""img/Fire_Up_Distractor.gif"",""img/Fire_Up_Distractor.gif"",""img/Fire_Up_Distractor.gif"",""img/Fire_Up_Distractor.gif"",""img/Fire_Up_Distractor.gif"",""img/Fire_Up_Distractor.gif"",""img/Fire_Up_Distractor.gif"",""img/Fire_Up_Distractor.gif"",""img/Fire_Up_Distractor.gif"",""img/Fire_Up_Distractor.gif"",""img/Fire_Up_Distractor.gif"",""img/Fire_Up_Distractor.gif""]","5","targetDown_distractorsUp"
"","","","","","html-keyboard-response","168","321678","0.0-14.0-0.0-0.77","5f7601d14e4cec02189a3b0e","619531dcf66c91622fa1b861","619595b4a818dd99c306a983","null","","null","","","","","main_T1_ITI","","","","",""
"","","","","","visual-search-circle","169","323568","0.0-14.0-0.0-1.77","5f7601d14e4cec02189a3b0e","619531dcf66c91622fa1b861","619595b4a818dd99c306a983","878.3999999985099","","d","true","[[294,599],[583,397],[480,60],[127,54],[13,387]]","true","5","main_T2_Trial","d","img/Fire_Down_Target.gif","[""img/Fire_Up_Distractor.gif"",""img/Fire_Up_Distractor.gif"",""img/Fire_Up_Distractor.gif"",""img/Fire_Up_Distractor.gif"",""img/Fire_Up_Distractor.gif"",""img/Fire_Up_Distractor.gif"",""img/Fire_Up_Distractor.gif"",""img/Fire_Up_Distractor.gif"",""img/Fire_Up_Distractor.gif"",""img/Fire_Up_Distractor.gif"",""img/Fire_Up_Distractor.gif"",""img/Fire_Up_Distractor.gif""]","5","targetDown_distractorsUp"
"","","","","","html-keyboard-response","170","323570","0.0-14.0-0.0-0.78","5f7601d14e4cec02189a3b0e","619531dcf66c91622fa1b861","619595b4a818dd99c306a983","null","","null","","","","","main_T1_ITI","","","","",""
"","","","","","visual-search-circle","171","326468","0.0-14.0-0.0-1.78","5f7601d14e4cec02189a3b0e","619531dcf66c91622fa1b861","619595b4a818dd99c306a983","1879.8999999985099","","d","true","[[115,63],[18,402],[310,599],[588,382],[467,51]]","true","5","main_T2_Trial","d","img/Fire_Up_Target.gif","[""img/Fire_Down_Distractor.gif"",""img/Fire_Down_Distractor.gif"",""img/Fire_Down_Distractor.gif"",""img/Fire_Down_Distractor.gif"",""img/Fire_Down_Distractor.gif"",""img/Fire_Down_Distractor.gif"",""img/Fire_Down_Distractor.gif"",""img/Fire_Down_Distractor.gif"",""img/Fire_Down_Distractor.gif"",""img/Fire_Down_Distractor.gif"",""img/Fire_Down_Distractor.gif"",""img/Fire_Down_Distractor.gif""]","5","targetUp_distractorsDown"
"","","","","","html-keyboard-response","172","328156","0.0-14.0-0.0-0.79","5f7601d14e4cec02189a3b0e","619531dcf66c91622fa1b861","619595b4a818dd99c306a983","1688.1000000014901","Wow! You've completed 80 out of 160 trials! </p> <p>  </p><p> Take a quick break, then press any key when you're ready to continue.","d","","","","","main_T1_ITI","","","","",""
"","","","","","visual-search-circle","173","330548","0.0-14.0-0.0-1.79","5f7601d14e4cec02189a3b0e","619531dcf66c91622fa1b861","619595b4a818dd99c306a983","1375.1999999955297","","s","true","[[119,60],[60,480],[480,539],[539,119]]","false","4","main_T2_Trial","s","img/Fire_Down_Target.gif","[""img/Fire_Up_Distractor.gif"",""img/Fire_Up_Distractor.gif"",""img/Fire_Up_Distractor.gif"",""img/Fire_Up_Distractor.gif"",""img/Fire_Up_Distractor.gif"",""img/Fire_Up_Distractor.gif"",""img/Fire_Up_Distractor.gif"",""img/Fire_Up_Distractor.gif"",""img/Fire_Up_Distractor.gif"",""img/Fire_Up_Distractor.gif"",""img/Fire_Up_Distractor.gif"",""img/Fire_Up_Distractor.gif""]","4","targetDown_distractorsUp"
"","","","","","html-keyboard-response","174","330549","0.0-14.0-0.0-0.80","5f7601d14e4cec02189a3b0e","619531dcf66c91622fa1b861","619595b4a818dd99c306a983","null","","null","","","","","main_T1_ITI","","","","",""
"","","","","","visual-search-circle","175","333504","0.0-14.0-0.0-1.80","5f7601d14e4cec02189a3b0e","619531dcf66c91622fa1b861","619595b4a818dd99c306a983","1942.2000000029802","","d","true","[[585,207],[362,6],[77,99],[14,392],[237,593],[522,500]]","true","6","main_T2_Trial","d","img/Fire_Down_Target.gif","[""img/Fire_Up_Distractor.gif"",""img/Fire_Up_Distractor.gif"",""img/Fire_Up_Distractor.gif"",""img/Fire_Up_Distractor.gif"",""img/Fire_Up_Distractor.gif"",""img/Fire_Up_Distractor.gif"",""img/Fire_Up_Distractor.gif"",""img/Fire_Up_Distractor.gif"",""img/Fire_Up_Distractor.gif"",""img/Fire_Up_Distractor.gif"",""img/Fire_Up_Distractor.gif"",""img/Fire_Up_Distractor.gif""]","6","targetDown_distractorsUp"
"","","","","","html-keyboard-response","176","333512","0.0-14.0-0.0-0.81","5f7601d14e4cec02189a3b0e","619531dcf66c91622fa1b861","619595b4a818dd99c306a983","null","","null","","","","","main_T1_ITI","","","","",""
"","","","","","visual-search-circle","177","335644","0.0-14.0-0.0-1.81","5f7601d14e4cec02189a3b0e","619531dcf66c91622fa1b861","619595b4a818dd99c306a983","1114.6000000014901","","s","true","[[217,588],[588,382],[382,11],[11,217]]","false","4","main_T2_Trial","s","img/Fire_Down_Target.gif","[""img/Fire_Up_Distractor.gif"",""img/Fire_Up_Distractor.gif"",""img/Fire_Up_Distractor.gif"",""img/Fire_Up_Distractor.gif"",""img/Fire_Up_Distractor.gif"",""img/Fire_Up_Distractor.gif"",""img/Fire_Up_Distractor.gif"",""img/Fire_Up_Distractor.gif"",""img/Fire_Up_Distractor.gif"",""img/Fire_Up_Distractor.gif"",""img/Fire_Up_Distractor.gif"",""img/Fire_Up_Distractor.gif""]","4","targetDown_distractorsUp"
"","","","","","html-keyboard-response","178","335647","0.0-14.0-0.0-0.82","5f7601d14e4cec02189a3b0e","619531dcf66c91622fa1b861","619595b4a818dd99c306a983","null","","null","","","","","main_T1_ITI","","","","",""
"","","","","","visual-search-circle","179","337550","0.0-14.0-0.0-1.82","5f7601d14e4cec02189a3b0e","619531dcf66c91622fa1b861","619595b4a818dd99c306a983","899","","s","true","[[571,426],[545,127],[273,1],[28,173],[54,472],[326,598]]","false","6","main_T2_Trial","s","img/Fire_Up_Target.gif","[""img/Fire_Down_Distractor.gif"",""img/Fire_Down_Distractor.gif"",""img/Fire_Down_Distractor.gif"",""img/Fire_Down_Distractor.gif"",""img/Fire_Down_Distractor.gif"",""img/Fire_Down_Distractor.gif"",""img/Fire_Down_Distractor.gif"",""img/Fire_Down_Distractor.gif"",""img/Fire_Down_Distractor.gif"",""img/Fire_Down_Distractor.gif"",""img/Fire_Down_Distractor.gif"",""img/Fire_Down_Distractor.gif""]","6","targetUp_distractorsDown"
"","","","","","html-keyboard-response","180","337552","0.0-14.0-0.0-0.83","5f7601d14e4cec02189a3b0e","619531dcf66c91622fa1b861","619595b4a818dd99c306a983","null","","null","","","","","main_T1_ITI","","","","",""
"","","","","","visual-search-circle","181","339689","0.0-14.0-0.0-1.83","5f7601d14e4cec02189a3b0e","619531dcf66c91622fa1b861","619595b4a818dd99c306a983","1122.8999999985099","","d","true","[[13,387],[294,599],[583,397],[480,60],[127,54]]","true","5","main_T2_Trial","d","img/Fire_Up_Target.gif","[""img/Fire_Down_Distractor.gif"",""img/Fire_Down_Distractor.gif"",""img/Fire_Down_Distractor.gif"",""img/Fire_Down_Distractor.gif"",""img/Fire_Down_Distractor.gif"",""img/Fire_Down_Distractor.gif"",""img/Fire_Down_Distractor.gif"",""img/Fire_Down_Distractor.gif"",""img/Fire_Down_Distractor.gif"",""img/Fire_Down_Distractor.gif"",""img/Fire_Down_Distractor.gif"",""img/Fire_Down_Distractor.gif""]","5","targetUp_distractorsDown"
"","","","","","html-keyboard-response","182","339691","0.0-14.0-0.0-0.84","5f7601d14e4cec02189a3b0e","619531dcf66c91622fa1b861","619595b4a818dd99c306a983","null","","null","","","","","main_T1_ITI","","","","",""
"","","","","","visual-search-circle","183","341781","0.0-14.0-0.0-1.84","5f7601d14e4cec02189a3b0e","619531dcf66c91622fa1b861","619595b4a818dd99c306a983","1083.3000000044703","","s","true","[[99,522],[392,585],[593,362],[500,77],[207,14],[6,237]]","false","6","main_T2_Trial","s","img/Fire_Down_Target.gif","[""img/Fire_Up_Distractor.gif"",""img/Fire_Up_Distractor.gif"",""img/Fire_Up_Distractor.gif"",""img/Fire_Up_Distractor.gif"",""img/Fire_Up_Distractor.gif"",""img/Fire_Up_Distractor.gif"",""img/Fire_Up_Distractor.gif"",""img/Fire_Up_Distractor.gif"",""img/Fire_Up_Distractor.gif"",""img/Fire_Up_Distractor.gif"",""img/Fire_Up_Distractor.gif"",""img/Fire_Up_Distractor.gif""]","6","targetDown_distractorsUp"
"","","","","","html-keyboard-response","184","341782","0.0-14.0-0.0-0.85","5f7601d14e4cec02189a3b0e","619531dcf66c91622fa1b861","619595b4a818dd99c306a983","null","","null","","","","","main_T1_ITI","","","","",""
"","","","","","visual-search-circle","185","343561","0.0-14.0-0.0-1.85","5f7601d14e4cec02189a3b0e","619531dcf66c91622fa1b861","619595b4a818dd99c306a983","765.5999999940395","","s","true","[[597,258],[480,60],[258,2],[60,119],[2,341],[119,539],[341,597],[539,480]]","false","8","main_T2_Trial","s","img/Fire_Up_Target.gif","[""img/Fire_Down_Distractor.gif"",""img/Fire_Down_Distractor.gif"",""img/Fire_Down_Distractor.gif"",""img/Fire_Down_Distractor.gif"",""img/Fire_Down_Distractor.gif"",""img/Fire_Down_Distractor.gif"",""img/Fire_Down_Distractor.gif"",""img/Fire_Down_Distractor.gif"",""img/Fire_Down_Distractor.gif"",""img/Fire_Down_Distractor.gif"",""img/Fire_Down_Distractor.gif"",""img/Fire_Down_Distractor.gif""]","8","targetUp_distractorsDown"
"","","","","","html-keyboard-response","186","343563","0.0-14.0-0.0-0.86","5f7601d14e4cec02189a3b0e","619531dcf66c91622fa1b861","619595b4a818dd99c306a983","null","","null","","","","","main_T1_ITI","","","","",""
"","","","","","visual-search-circle","187","345273","0.0-14.0-0.0-1.86","5f7601d14e4cec02189a3b0e","619531dcf66c91622fa1b861","619595b4a818dd99c306a983","702","","s","true","[[580,192],[390,13],[132,50],[1,275],[94,518],[342,596],[558,451]]","false","7","main_T2_Trial","s","img/Fire_Down_Target.gif","[""img/Fire_Up_Distractor.gif"",""img/Fire_Up_Distractor.gif"",""img/Fire_Up_Distractor.gif"",""img/Fire_Up_Distractor.gif"",""img/Fire_Up_Distractor.gif"",""img/Fire_Up_Distractor.gif"",""img/Fire_Up_Distractor.gif"",""img/Fire_Up_Distractor.gif"",""img/Fire_Up_Distractor.gif"",""img/Fire_Up_Distractor.gif"",""img/Fire_Up_Distractor.gif"",""img/Fire_Up_Distractor.gif""]","7","targetDown_distractorsUp"
"","","","","","html-keyboard-response","188","345274","0.0-14.0-0.0-0.87","5f7601d14e4cec02189a3b0e","619531dcf66c91622fa1b861","619595b4a818dd99c306a983","null","","null","","","","","main_T1_ITI","","","","",""
"","","","","","visual-search-circle","189","347042","0.0-14.0-0.0-1.87","5f7601d14e4cec02189a3b0e","619531dcf66c91622fa1b861","619595b4a818dd99c306a983","759.6000000014901","","s","false","[[598,331],[533,111],[331,1],[111,66],[1,268],[66,488],[268,598],[488,533]]","true","8","main_T2_Trial","d","img/Fire_Down_Target.gif","[""img/Fire_Up_Distractor.gif"",""img/Fire_Up_Distractor.gif"",""img/Fire_Up_Distractor.gif"",""img/Fire_Up_Distractor.gif"",""img/Fire_Up_Distractor.gif"",""img/Fire_Up_Distractor.gif"",""img/Fire_Up_Distractor.gif"",""img/Fire_Up_Distractor.gif"",""img/Fire_Up_Distractor.gif"",""img/Fire_Up_Distractor.gif"",""img/Fire_Up_Distractor.gif"",""img/Fire_Up_Distractor.gif""]","8","targetDown_distractorsUp"
"","","","","","html-keyboard-response","190","347045","0.0-14.0-0.0-0.88","5f7601d14e4cec02189a3b0e","619531dcf66c91622fa1b861","619595b4a818dd99c306a983","null","","null","","","","","main_T1_ITI","","","","",""
"","","","","","visual-search-circle","191","349253","0.0-14.0-0.0-1.88","5f7601d14e4cec02189a3b0e","619531dcf66c91622fa1b861","619595b4a818dd99c306a983","1195.0999999940395","","s","false","[[2,263],[119,539],[417,576],[597,336],[480,60],[182,23]]","true","6","main_T2_Trial","d","img/Fire_Down_Target.gif","[""img/Fire_Up_Distractor.gif"",""img/Fire_Up_Distractor.gif"",""img/Fire_Up_Distractor.gif"",""img/Fire_Up_Distractor.gif"",""img/Fire_Up_Distractor.gif"",""img/Fire_Up_Distractor.gif"",""img/Fire_Up_Distractor.gif"",""img/Fire_Up_Distractor.gif"",""img/Fire_Up_Distractor.gif"",""img/Fire_Up_Distractor.gif"",""img/Fire_Up_Distractor.gif"",""img/Fire_Up_Distractor.gif""]","6","targetDown_distractorsUp"
"","","","","","html-keyboard-response","192","349255","0.0-14.0-0.0-0.89","5f7601d14e4cec02189a3b0e","619531dcf66c91622fa1b861","619595b4a818dd99c306a983","null","","null","","","","","main_T1_ITI","","","","",""
"","","","","","visual-search-circle","193","351821","0.0-14.0-0.0-1.89","5f7601d14e4cec02189a3b0e","619531dcf66c91622fa1b861","619595b4a818dd99c306a983","1555.2999999970198","","d","true","[[5,242],[71,494],[309,599],[540,479],[590,223],[421,25],[161,34]]","true","7","main_T2_Trial","d","img/Fire_Down_Target.gif","[""img/Fire_Up_Distractor.gif"",""img/Fire_Up_Distractor.gif"",""img/Fire_Up_Distractor.gif"",""img/Fire_Up_Distractor.gif"",""img/Fire_Up_Distractor.gif"",""img/Fire_Up_Distractor.gif"",""img/Fire_Up_Distractor.gif"",""img/Fire_Up_Distractor.gif"",""img/Fire_Up_Distractor.gif"",""img/Fire_Up_Distractor.gif"",""img/Fire_Up_Distractor.gif"",""img/Fire_Up_Distractor.gif""]","7","targetDown_distractorsUp"
"","","","","","html-keyboard-response","194","351822","0.0-14.0-0.0-0.90","5f7601d14e4cec02189a3b0e","619531dcf66c91622fa1b861","619595b4a818dd99c306a983","null","","null","","","","","main_T1_ITI","","","","",""
"","","","","","visual-search-circle","195","353781","0.0-14.0-0.0-1.90","5f7601d14e4cec02189a3b0e","619531dcf66c91622fa1b861","619595b4a818dd99c306a983","951.7000000029802","","s","false","[[247,4],[54,127],[4,352],[127,545],[352,595],[545,472],[595,247],[472,54]]","true","8","main_T2_Trial","d","img/Fire_Up_Target.gif","[""img/Fire_Down_Distractor.gif"",""img/Fire_Down_Distractor.gif"",""img/Fire_Down_Distractor.gif"",""img/Fire_Down_Distractor.gif"",""img/Fire_Down_Distractor.gif"",""img/Fire_Down_Distractor.gif"",""img/Fire_Down_Distractor.gif"",""img/Fire_Down_Distractor.gif"",""img/Fire_Down_Distractor.gif"",""img/Fire_Down_Distractor.gif"",""img/Fire_Down_Distractor.gif"",""img/Fire_Down_Distractor.gif""]","8","targetUp_distractorsDown"
"","","","","","html-keyboard-response","196","353783","0.0-14.0-0.0-0.91","5f7601d14e4cec02189a3b0e","619531dcf66c91622fa1b861","619595b4a818dd99c306a983","null","","null","","","","","main_T1_ITI","","","","",""
"","","","","","visual-search-circle","197","355554","0.0-14.0-0.0-1.91","5f7601d14e4cec02189a3b0e","619531dcf66c91622fa1b861","619595b4a818dd99c306a983","754.1000000014901","","s","false","[[592,232],[429,29],[169,30],[7,233],[65,487],[300,599],[535,486]]","true","7","main_T2_Trial","d","img/Fire_Down_Target.gif","[""img/Fire_Up_Distractor.gif"",""img/Fire_Up_Distractor.gif"",""img/Fire_Up_Distractor.gif"",""img/Fire_Up_Distractor.gif"",""img/Fire_Up_Distractor.gif"",""img/Fire_Up_Distractor.gif"",""img/Fire_Up_Distractor.gif"",""img/Fire_Up_Distractor.gif"",""img/Fire_Up_Distractor.gif"",""img/Fire_Up_Distractor.gif"",""img/Fire_Up_Distractor.gif"",""img/Fire_Up_Distractor.gif""]","7","targetDown_distractorsUp"
"","","","","","html-keyboard-response","198","355557","0.0-14.0-0.0-0.92","5f7601d14e4cec02189a3b0e","619531dcf66c91622fa1b861","619595b4a818dd99c306a983","null","","null","","","","","main_T1_ITI","","","","",""
"","","","","","visual-search-circle","199","358611","0.0-14.0-0.0-1.92","5f7601d14e4cec02189a3b0e","619531dcf66c91622fa1b861","619595b4a818dd99c306a983","2046.5999999940395","","d","true","[[187,578],[529,492],[554,141],[227,8],[0,279]]","true","5","main_T2_Trial","d","img/Fire_Up_Target.gif","[""img/Fire_Down_Distractor.gif"",""img/Fire_Down_Distractor.gif"",""img/Fire_Down_Distractor.gif"",""img/Fire_Down_Distractor.gif"",""img/Fire_Down_Distractor.gif"",""img/Fire_Down_Distractor.gif"",""img/Fire_Down_Distractor.gif"",""img/Fire_Down_Distractor.gif"",""img/Fire_Down_Distractor.gif"",""img/Fire_Down_Distractor.gif"",""img/Fire_Down_Distractor.gif"",""img/Fire_Down_Distractor.gif""]","5","targetUp_distractorsDown"
"","","","","","html-keyboard-response","200","358613","0.0-14.0-0.0-0.93","5f7601d14e4cec02189a3b0e","619531dcf66c91622fa1b861","619595b4a818dd99c306a983","null","","null","","","","","main_T1_ITI","","","","",""
"","","","","","visual-search-circle","201","360756","0.0-14.0-0.0-1.93","5f7601d14e4cec02189a3b0e","619531dcf66c91622fa1b861","619595b4a818dd99c306a983","1138.8999999985099","","s","true","[[14,392],[392,585],[585,207],[207,14]]","false","4","main_T2_Trial","s","img/Fire_Down_Target.gif","[""img/Fire_Up_Distractor.gif"",""img/Fire_Up_Distractor.gif"",""img/Fire_Up_Distractor.gif"",""img/Fire_Up_Distractor.gif"",""img/Fire_Up_Distractor.gif"",""img/Fire_Up_Distractor.gif"",""img/Fire_Up_Distractor.gif"",""img/Fire_Up_Distractor.gif"",""img/Fire_Up_Distractor.gif"",""img/Fire_Up_Distractor.gif"",""img/Fire_Up_Distractor.gif"",""img/Fire_Up_Distractor.gif""]","4","targetDown_distractorsUp"
"","","","","","html-keyboard-response","202","360757","0.0-14.0-0.0-0.94","5f7601d14e4cec02189a3b0e","619531dcf66c91622fa1b861","619595b4a818dd99c306a983","null","","null","","","","","main_T1_ITI","","","","",""
"","","","","","visual-search-circle","203","362814","0.0-14.0-0.0-1.94","5f7601d14e4cec02189a3b0e","619531dcf66c91622fa1b861","619595b4a818dd99c306a983","1041.8000000044703","","s","true","[[599,289],[504,80],[289,0],[80,95],[0,310],[95,519],[310,599],[519,504]]","false","8","main_T2_Trial","s","img/Fire_Down_Target.gif","[""img/Fire_Up_Distractor.gif"",""img/Fire_Up_Distractor.gif"",""img/Fire_Up_Distractor.gif"",""img/Fire_Up_Distractor.gif"",""img/Fire_Up_Distractor.gif"",""img/Fire_Up_Distractor.gif"",""img/Fire_Up_Distractor.gif"",""img/Fire_Up_Distractor.gif"",""img/Fire_Up_Distractor.gif"",""img/Fire_Up_Distractor.gif"",""img/Fire_Up_Distractor.gif"",""img/Fire_Up_Distractor.gif""]","8","targetDown_distractorsUp"
"","","","","","html-keyboard-response","204","362816","0.0-14.0-0.0-0.95","5f7601d14e4cec02189a3b0e","619531dcf66c91622fa1b861","619595b4a818dd99c306a983","null","","null","","","","","main_T1_ITI","","","","",""
"","","","","","visual-search-circle","205","367980","0.0-14.0-0.0-1.95","5f7601d14e4cec02189a3b0e","619531dcf66c91622fa1b861","619595b4a818dd99c306a983","4160.10000000149","","s","true","[[1,326],[232,592],[557,454],[526,103],[182,23]]","false","5","main_T2_Trial","s","img/Fire_Up_Target.gif","[""img/Fire_Down_Distractor.gif"",""img/Fire_Down_Distractor.gif"",""img/Fire_Down_Distractor.gif"",""img/Fire_Down_Distractor.gif"",""img/Fire_Down_Distractor.gif"",""img/Fire_Down_Distractor.gif"",""img/Fire_Down_Distractor.gif"",""img/Fire_Down_Distractor.gif"",""img/Fire_Down_Distractor.gif"",""img/Fire_Down_Distractor.gif"",""img/Fire_Down_Distractor.gif"",""img/Fire_Down_Distractor.gif""]","5","targetUp_distractorsDown"
"","","","","","html-keyboard-response","206","367982","0.0-14.0-0.0-0.96","5f7601d14e4cec02189a3b0e","619531dcf66c91622fa1b861","619595b4a818dd99c306a983","null","","null","","","","","main_T1_ITI","","","","",""
"","","","","","visual-search-circle","207","371491","0.0-14.0-0.0-1.96","5f7601d14e4cec02189a3b0e","619531dcf66c91622fa1b861","619595b4a818dd99c306a983","2501.7999999970198","","s","true","[[559,450],[589,222],[449,40],[222,10],[40,150],[10,377],[150,559],[377,589]]","false","8","main_T2_Trial","s","img/Fire_Up_Target.gif","[""img/Fire_Down_Distractor.gif"",""img/Fire_Down_Distractor.gif"",""img/Fire_Down_Distractor.gif"",""img/Fire_Down_Distractor.gif"",""img/Fire_Down_Distractor.gif"",""img/Fire_Down_Distractor.gif"",""img/Fire_Down_Distractor.gif"",""img/Fire_Down_Distractor.gif"",""img/Fire_Down_Distractor.gif"",""img/Fire_Down_Distractor.gif"",""img/Fire_Down_Distractor.gif"",""img/Fire_Down_Distractor.gif""]","8","targetUp_distractorsDown"
"","","","","","html-keyboard-response","208","371494","0.0-14.0-0.0-0.97","5f7601d14e4cec02189a3b0e","619531dcf66c91622fa1b861","619595b4a818dd99c306a983","null","","null","","","","","main_T1_ITI","","","","",""
"","","","","","visual-search-circle","209","374565","0.0-14.0-0.0-1.97","5f7601d14e4cec02189a3b0e","619531dcf66c91622fa1b861","619595b4a818dd99c306a983","2061.0999999940395","","s","false","[[341,597],[578,412],[536,115],[258,2],[21,187],[63,484]]","true","6","main_T2_Trial","d","img/Fire_Up_Target.gif","[""img/Fire_Down_Distractor.gif"",""img/Fire_Down_Distractor.gif"",""img/Fire_Down_Distractor.gif"",""img/Fire_Down_Distractor.gif"",""img/Fire_Down_Distractor.gif"",""img/Fire_Down_Distractor.gif"",""img/Fire_Down_Distractor.gif"",""img/Fire_Down_Distractor.gif"",""img/Fire_Down_Distractor.gif"",""img/Fire_Down_Distractor.gif"",""img/Fire_Down_Distractor.gif"",""img/Fire_Down_Distractor.gif""]","6","targetUp_distractorsDown"
"","","","","","html-keyboard-response","210","374567","0.0-14.0-0.0-0.98","5f7601d14e4cec02189a3b0e","619531dcf66c91622fa1b861","619595b4a818dd99c306a983","null","","null","","","","","main_T1_ITI","","","","",""
"","","","","","visual-search-circle","211","376486","0.0-14.0-0.0-1.98","5f7601d14e4cec02189a3b0e","619531dcf66c91622fa1b861","619595b4a818dd99c306a983","902.7000000029802","","s","false","[[115,63],[0,297],[110,532],[363,593],[568,432],[571,172],[369,8]]","true","7","main_T2_Trial","d","img/Fire_Down_Target.gif","[""img/Fire_Up_Distractor.gif"",""img/Fire_Up_Distractor.gif"",""img/Fire_Up_Distractor.gif"",""img/Fire_Up_Distractor.gif"",""img/Fire_Up_Distractor.gif"",""img/Fire_Up_Distractor.gif"",""img/Fire_Up_Distractor.gif"",""img/Fire_Up_Distractor.gif"",""img/Fire_Up_Distractor.gif"",""img/Fire_Up_Distractor.gif"",""img/Fire_Up_Distractor.gif"",""img/Fire_Up_Distractor.gif""]","7","targetDown_distractorsUp"
"","","","","","html-keyboard-response","212","381541","0.0-14.0-0.0-0.99","5f7601d14e4cec02189a3b0e","619531dcf66c91622fa1b861","619595b4a818dd99c306a983","5055.20000000298","Wow! You've completed 100 out of 160 trials! </p> <p>  </p><p> Take a quick break, then press any key when you're ready to continue."," ","","","","","main_T1_ITI","","","","",""
"","","","","","visual-search-circle","213","383002","0.0-14.0-0.0-1.99","5f7601d14e4cec02189a3b0e","619531dcf66c91622fa1b861","619595b4a818dd99c306a983","455.6000000014901","","d","false","[[519,95],[276,0],[51,131],[13,389],[191,579],[450,559],[596,343]]","false","7","main_T2_Trial","s","img/Fire_Up_Target.gif","[""img/Fire_Down_Distractor.gif"",""img/Fire_Down_Distractor.gif"",""img/Fire_Down_Distractor.gif"",""img/Fire_Down_Distractor.gif"",""img/Fire_Down_Distractor.gif"",""img/Fire_Down_Distractor.gif"",""img/Fire_Down_Distractor.gif"",""img/Fire_Down_Distractor.gif"",""img/Fire_Down_Distractor.gif"",""img/Fire_Down_Distractor.gif"",""img/Fire_Down_Distractor.gif"",""img/Fire_Down_Distractor.gif""]","7","targetUp_distractorsDown"
"","","","","","html-keyboard-response","214","383011","0.0-14.0-0.0-0.100","5f7601d14e4cec02189a3b0e","619531dcf66c91622fa1b861","619595b4a818dd99c306a983","null","","null","","","","","main_T1_ITI","","","","",""
"","","","","","visual-search-circle","215","385525","0.0-14.0-0.0-1.100","5f7601d14e4cec02189a3b0e","619531dcf66c91622fa1b861","619595b4a818dd99c306a983","1510.5","","s","true","[[1,273],[273,598],[598,326],[326,1]]","false","4","main_T2_Trial","s","img/Fire_Up_Target.gif","[""img/Fire_Down_Distractor.gif"",""img/Fire_Down_Distractor.gif"",""img/Fire_Down_Distractor.gif"",""img/Fire_Down_Distractor.gif"",""img/Fire_Down_Distractor.gif"",""img/Fire_Down_Distractor.gif"",""img/Fire_Down_Distractor.gif"",""img/Fire_Down_Distractor.gif"",""img/Fire_Down_Distractor.gif"",""img/Fire_Down_Distractor.gif"",""img/Fire_Down_Distractor.gif"",""img/Fire_Down_Distractor.gif""]","4","targetUp_distractorsDown"
"","","","","","html-keyboard-response","216","385527","0.0-14.0-0.0-0.101","5f7601d14e4cec02189a3b0e","619531dcf66c91622fa1b861","619595b4a818dd99c306a983","null","","null","","","","","main_T1_ITI","","","","",""
