"success","timeout","failed_images","failed_audio","failed_video","trial_type","trial_index","time_elapsed","internal_node_id","subject_id","study_id","session_id","rt","stimulus","response","correct","locations","target_present","set_size","task","correct_response","target","foilCM","setSizeCM","searchCondition"
"true","false","[]","[]","[]","preload","0","56816","0.0-0.0","5f8359dc31c65e0fca60103f","619531dcf66c91622fa1b861","6195a215eb11b2ae79bd87fd","","","","","","","","","","","","",""
"true","","","","","fullscreen","1","60014","0.0-1.0","5f8359dc31c65e0fca60103f","619531dcf66c91622fa1b861","6195a215eb11b2ae79bd87fd","","","","","","","","","","","","",""
"","","","","","html-keyboard-response","2","64193","0.0-2.0","5f8359dc31c65e0fca60103f","619531dcf66c91622fa1b861","6195a215eb11b2ae79bd87fd","4178.0999999996275","What a beautiful Wednesday to do some awesome science! </p> <p>  </p><p> </p>
    By completing this survey or questionnaire, you are consenting to be in this research study. </p>
    Your participation is voluntary and you can stop at any time.
    <p> [Press any key to continue.] </p>
    
    ","arrowup","","","","","","","","","",""
"","","","","","video-keyboard-response","3","84830","0.0-3.0","5f8359dc31c65e0fca60103f","619531dcf66c91622fa1b861","6195a215eb11b2ae79bd87fd","20631.200000000186","[""video/TaskInstructions.mp4""]","d","","","","","","","","","",""
"","","","","","html-keyboard-response","4","88071","0.0-4.0","5f8359dc31c65e0fca60103f","619531dcf66c91622fa1b861","6195a215eb11b2ae79bd87fd","3240.5","
    <p>First, we're going to do a few practice trials to make sure you understand the task. You will recieve feedback on each trial. </p>
    <p>[Press any key to begin the familiarization phase.]</p>
    ","d","","","","","","","","","",""
"","","","","","visual-search-circle","5","91687","0.0-5.0-0.0","5f8359dc31c65e0fca60103f","619531dcf66c91622fa1b861","6195a215eb11b2ae79bd87fd","2531.300000000745","","d","true","[[562,445],[445,37],[37,154],[154,562]]","true","4","training","d","","","",""
"","","","","","html-keyboard-response","6","93499","0.0-6.0","5f8359dc31c65e0fca60103f","619531dcf66c91622fa1b861","6195a215eb11b2ae79bd87fd","1810.6000000005588"," <div style='float: center; '><img src='img/feedbackRight.png'></img> </div> "," ","","","","","","","","","",""
"","","","","","visual-search-circle","7","95453","0.0-7.0-0.0","5f8359dc31c65e0fca60103f","619531dcf66c91622fa1b861","6195a215eb11b2ae79bd87fd","940.9000000003725","","s","true","[[30,168],[168,569],[569,431],[431,30]]","false","4","training","s","","","",""
"","","","","","html-keyboard-response","8","96768","0.0-8.0","5f8359dc31c65e0fca60103f","619531dcf66c91622fa1b861","6195a215eb11b2ae79bd87fd","1314.2000000001863"," <div style='float: center; '><img src='img/feedbackRight.png'></img> </div> "," ","","","","","","","","","",""
"","","","","","visual-search-circle","9","98914","0.0-9.0-0.0","5f8359dc31c65e0fca60103f","619531dcf66c91622fa1b861","6195a215eb11b2ae79bd87fd","1129.2000000001863","","s","true","[[467,51],[168,30],[0,279],[132,548],[431,569],[599,320]]","false","6","training","s","","","",""
"","","","","","html-keyboard-response","10","99504","0.0-10.0","5f8359dc31c65e0fca60103f","619531dcf66c91622fa1b861","6195a215eb11b2ae79bd87fd","589"," <div style='float: center; '><img src='img/feedbackRight.png'></img> </div> "," ","","","","","","","","","",""
"","","","","","visual-search-circle","11","101362","0.0-11.0-0.0","5f8359dc31c65e0fca60103f","619531dcf66c91622fa1b861","6195a215eb11b2ae79bd87fd","841.5","","d","true","[[2,336],[115,536],[336,597],[536,484],[597,263],[484,63],[263,2],[63,115]]","true","8","training","d","","","",""
"","","","","","html-keyboard-response","12","101912","0.0-12.0","5f8359dc31c65e0fca60103f","619531dcf66c91622fa1b861","6195a215eb11b2ae79bd87fd","549.7999999998137"," <div style='float: center; '><img src='img/feedbackRight.png'></img> </div> "," ","","","","","","","","","",""
"","","","","","video-keyboard-response","13","103714","0.0-13.0","5f8359dc31c65e0fca60103f","619531dcf66c91622fa1b861","6195a215eb11b2ae79bd87fd","1801.199999999255","[""video/endTraining.mp4""]"," ","","","","","","","","","",""
"","","","","","html-keyboard-response","14","103717","0.0-14.0-0.0-0.0","5f8359dc31c65e0fca60103f","619531dcf66c91622fa1b861","6195a215eb11b2ae79bd87fd","null","","null","","","","","main_T1_ITI","","","","",""
"","","","","","visual-search-circle","15","105705","0.0-14.0-0.0-1.0","5f8359dc31c65e0fca60103f","619531dcf66c91622fa1b861","6195a215eb11b2ae79bd87fd","980.5","","s","true","[[253,596],[533,488],[580,192],[346,3],[66,111],[19,407]]","false","6","main_T2_Trial","s","img/Fire_Down_Target.gif","[""img/Fire_Up_Distractor.gif"",""img/Fire_Up_Distractor.gif"",""img/Fire_Up_Distractor.gif"",""img/Fire_Up_Distractor.gif"",""img/Fire_Up_Distractor.gif"",""img/Fire_Up_Distractor.gif"",""img/Fire_Up_Distractor.gif"",""img/Fire_Up_Distractor.gif"",""img/Fire_Up_Distractor.gif"",""img/Fire_Up_Distractor.gif"",""img/Fire_Up_Distractor.gif"",""img/Fire_Up_Distractor.gif""]","6","targetDown_distractorsUp"
"","","","","","html-keyboard-response","16","105709","0.0-14.0-0.0-0.1","5f8359dc31c65e0fca60103f","619531dcf66c91622fa1b861","6195a215eb11b2ae79bd87fd","null","","null","","","","","main_T1_ITI","","","","",""
"","","","","","visual-search-circle","17","107652","0.0-14.0-0.0-1.1","5f8359dc31c65e0fca60103f","619531dcf66c91622fa1b861","6195a215eb11b2ae79bd87fd","932.2000000001863","","s","true","[[2,341],[341,597],[597,258],[258,2]]","false","4","main_T2_Trial","s","img/Fire_Up_Target.gif","[""img/Fire_Down_Distractor.gif"",""img/Fire_Down_Distractor.gif"",""img/Fire_Down_Distractor.gif"",""img/Fire_Down_Distractor.gif"",""img/Fire_Down_Distractor.gif"",""img/Fire_Down_Distractor.gif"",""img/Fire_Down_Distractor.gif"",""img/Fire_Down_Distractor.gif"",""img/Fire_Down_Distractor.gif"",""img/Fire_Down_Distractor.gif"",""img/Fire_Down_Distractor.gif"",""img/Fire_Down_Distractor.gif""]","4","targetUp_distractorsDown"
"","","","","","html-keyboard-response","18","107654","0.0-14.0-0.0-0.2","5f8359dc31c65e0fca60103f","619531dcf66c91622fa1b861","6195a215eb11b2ae79bd87fd","null","","null","","","","","main_T1_ITI","","","","",""
"","","","","","visual-search-circle","19","109415","0.0-14.0-0.0-1.2","5f8359dc31c65e0fca60103f","619531dcf66c91622fa1b861","6195a215eb11b2ae79bd87fd","747.3000000007451","","d","true","[[150,40],[3,255],[80,504],[322,599],[547,468],[586,211],[409,20]]","true","7","main_T2_Trial","d","img/Fire_Down_Target.gif","[""img/Fire_Up_Distractor.gif"",""img/Fire_Up_Distractor.gif"",""img/Fire_Up_Distractor.gif"",""img/Fire_Up_Distractor.gif"",""img/Fire_Up_Distractor.gif"",""img/Fire_Up_Distractor.gif"",""img/Fire_Up_Distractor.gif"",""img/Fire_Up_Distractor.gif"",""img/Fire_Up_Distractor.gif"",""img/Fire_Up_Distractor.gif"",""img/Fire_Up_Distractor.gif"",""img/Fire_Up_Distractor.gif""]","7","targetDown_distractorsUp"
"","","","","","html-keyboard-response","20","109417","0.0-14.0-0.0-0.3","5f8359dc31c65e0fca60103f","619531dcf66c91622fa1b861","6195a215eb11b2ae79bd87fd","null","","null","","","","","main_T1_ITI","","","","",""
"","","","","","visual-search-circle","21","111218","0.0-14.0-0.0-1.3","5f8359dc31c65e0fca60103f","619531dcf66c91622fa1b861","6195a215eb11b2ae79bd87fd","787.2000000001863","","s","true","[[77,500],[422,574],[598,268],[362,6],[40,150]]","false","5","main_T2_Trial","s","img/Fire_Up_Target.gif","[""img/Fire_Down_Distractor.gif"",""img/Fire_Down_Distractor.gif"",""img/Fire_Down_Distractor.gif"",""img/Fire_Down_Distractor.gif"",""img/Fire_Down_Distractor.gif"",""img/Fire_Down_Distractor.gif"",""img/Fire_Down_Distractor.gif"",""img/Fire_Down_Distractor.gif"",""img/Fire_Down_Distractor.gif"",""img/Fire_Down_Distractor.gif"",""img/Fire_Down_Distractor.gif"",""img/Fire_Down_Distractor.gif""]","5","targetUp_distractorsDown"
"","","","","","html-keyboard-response","22","111220","0.0-14.0-0.0-0.4","5f8359dc31c65e0fca60103f","619531dcf66c91622fa1b861","6195a215eb11b2ae79bd87fd","null","","null","","","","","main_T1_ITI","","","","",""
"","","","","","visual-search-circle","23","113049","0.0-14.0-0.0-1.4","5f8359dc31c65e0fca60103f","619531dcf66c91622fa1b861","6195a215eb11b2ae79bd87fd","807.1999999992549","","s","true","[[496,73],[145,42],[7,367],[273,598],[576,417]]","false","5","main_T2_Trial","s","img/Fire_Down_Target.gif","[""img/Fire_Up_Distractor.gif"",""img/Fire_Up_Distractor.gif"",""img/Fire_Up_Distractor.gif"",""img/Fire_Up_Distractor.gif"",""img/Fire_Up_Distractor.gif"",""img/Fire_Up_Distractor.gif"",""img/Fire_Up_Distractor.gif"",""img/Fire_Up_Distractor.gif"",""img/Fire_Up_Distractor.gif"",""img/Fire_Up_Distractor.gif"",""img/Fire_Up_Distractor.gif"",""img/Fire_Up_Distractor.gif""]","5","targetDown_distractorsUp"
"","","","","","html-keyboard-response","24","113052","0.0-14.0-0.0-0.5","5f8359dc31c65e0fca60103f","619531dcf66c91622fa1b861","6195a215eb11b2ae79bd87fd","null","","null","","","","","main_T1_ITI","","","","",""
"","","","","","visual-search-circle","25","114785","0.0-14.0-0.0-1.5","5f8359dc31c65e0fca60103f","619531dcf66c91622fa1b861","6195a215eb11b2ae79bd87fd","721.4000000003725","","s","true","[[8,227],[91,515],[382,588],[591,372],[508,84],[217,11]]","false","6","main_T2_Trial","s","img/Fire_Down_Target.gif","[""img/Fire_Up_Distractor.gif"",""img/Fire_Up_Distractor.gif"",""img/Fire_Up_Distractor.gif"",""img/Fire_Up_Distractor.gif"",""img/Fire_Up_Distractor.gif"",""img/Fire_Up_Distractor.gif"",""img/Fire_Up_Distractor.gif"",""img/Fire_Up_Distractor.gif"",""img/Fire_Up_Distractor.gif"",""img/Fire_Up_Distractor.gif"",""img/Fire_Up_Distractor.gif"",""img/Fire_Up_Distractor.gif""]","6","targetDown_distractorsUp"
"","","","","","html-keyboard-response","26","114901","0.0-14.0-0.0-0.6","5f8359dc31c65e0fca60103f","619531dcf66c91622fa1b861","6195a215eb11b2ae79bd87fd","null","","null","","","","","main_T1_ITI","","","","",""
"","","","","","visual-search-circle","27","116728","0.0-14.0-0.0-1.6","5f8359dc31c65e0fca60103f","619531dcf66c91622fa1b861","6195a215eb11b2ae79bd87fd","819.5999999996275","","d","true","[[463,48],[111,66],[19,407],[315,599],[589,377]]","true","5","main_T2_Trial","d","img/Fire_Up_Target.gif","[""img/Fire_Down_Distractor.gif"",""img/Fire_Down_Distractor.gif"",""img/Fire_Down_Distractor.gif"",""img/Fire_Down_Distractor.gif"",""img/Fire_Down_Distractor.gif"",""img/Fire_Down_Distractor.gif"",""img/Fire_Down_Distractor.gif"",""img/Fire_Down_Distractor.gif"",""img/Fire_Down_Distractor.gif"",""img/Fire_Down_Distractor.gif"",""img/Fire_Down_Distractor.gif"",""img/Fire_Down_Distractor.gif""]","5","targetUp_distractorsDown"
"","","","","","html-keyboard-response","28","116736","0.0-14.0-0.0-0.7","5f8359dc31c65e0fca60103f","619531dcf66c91622fa1b861","6195a215eb11b2ae79bd87fd","null","","null","","","","","main_T1_ITI","","","","",""
"","","","","","visual-search-circle","29","118487","0.0-14.0-0.0-1.7","5f8359dc31c65e0fca60103f","619531dcf66c91622fa1b861","6195a215eb11b2ae79bd87fd","737.1000000005588","","s","true","[[23,182],[182,576],[576,417],[417,23]]","false","4","main_T2_Trial","s","img/Fire_Down_Target.gif","[""img/Fire_Up_Distractor.gif"",""img/Fire_Up_Distractor.gif"",""img/Fire_Up_Distractor.gif"",""img/Fire_Up_Distractor.gif"",""img/Fire_Up_Distractor.gif"",""img/Fire_Up_Distractor.gif"",""img/Fire_Up_Distractor.gif"",""img/Fire_Up_Distractor.gif"",""img/Fire_Up_Distractor.gif"",""img/Fire_Up_Distractor.gif"",""img/Fire_Up_Distractor.gif"",""img/Fire_Up_Distractor.gif""]","4","targetDown_distractorsUp"
"","","","","","html-keyboard-response","30","118490","0.0-14.0-0.0-0.8","5f8359dc31c65e0fca60103f","619531dcf66c91622fa1b861","6195a215eb11b2ae79bd87fd","null","","null","","","","","main_T1_ITI","","","","",""
"","","","","","visual-search-circle","31","120272","0.0-14.0-0.0-1.8","5f8359dc31c65e0fca60103f","619531dcf66c91622fa1b861","6195a215eb11b2ae79bd87fd","770.9000000003725","","d","false","[[163,32],[6,239],[69,492],[306,599],[538,481],[590,226],[424,26]]","false","7","main_T2_Trial","s","img/Fire_Up_Target.gif","[""img/Fire_Down_Distractor.gif"",""img/Fire_Down_Distractor.gif"",""img/Fire_Down_Distractor.gif"",""img/Fire_Down_Distractor.gif"",""img/Fire_Down_Distractor.gif"",""img/Fire_Down_Distractor.gif"",""img/Fire_Down_Distractor.gif"",""img/Fire_Down_Distractor.gif"",""img/Fire_Down_Distractor.gif"",""img/Fire_Down_Distractor.gif"",""img/Fire_Down_Distractor.gif"",""img/Fire_Down_Distractor.gif""]","7","targetUp_distractorsDown"
"","","","","","html-keyboard-response","32","120278","0.0-14.0-0.0-0.9","5f8359dc31c65e0fca60103f","619531dcf66c91622fa1b861","6195a215eb11b2ae79bd87fd","null","","null","","","","","main_T1_ITI","","","","",""
"","","","","","visual-search-circle","33","122160","0.0-14.0-0.0-1.9","5f8359dc31c65e0fca60103f","619531dcf66c91622fa1b861","6195a215eb11b2ae79bd87fd","862.5999999996275","","d","true","[[488,66],[192,19],[3,253],[111,533],[407,580],[596,346]]","true","6","main_T2_Trial","d","img/Fire_Down_Target.gif","[""img/Fire_Up_Distractor.gif"",""img/Fire_Up_Distractor.gif"",""img/Fire_Up_Distractor.gif"",""img/Fire_Up_Distractor.gif"",""img/Fire_Up_Distractor.gif"",""img/Fire_Up_Distractor.gif"",""img/Fire_Up_Distractor.gif"",""img/Fire_Up_Distractor.gif"",""img/Fire_Up_Distractor.gif"",""img/Fire_Up_Distractor.gif"",""img/Fire_Up_Distractor.gif"",""img/Fire_Up_Distractor.gif""]","6","targetDown_distractorsUp"
"","","","","","html-keyboard-response","34","122162","0.0-14.0-0.0-0.10","5f8359dc31c65e0fca60103f","619531dcf66c91622fa1b861","6195a215eb11b2ae79bd87fd","null","","null","","","","","main_T1_ITI","","","","",""
"","","","","","visual-search-circle","35","123819","0.0-14.0-0.0-1.10","5f8359dc31c65e0fca60103f","619531dcf66c91622fa1b861","6195a215eb11b2ae79bd87fd","636.3000000007451","","s","true","[[111,66],[1,268],[66,488],[268,598],[488,533],[598,331],[533,111],[331,1]]","false","8","main_T2_Trial","s","img/Fire_Up_Target.gif","[""img/Fire_Down_Distractor.gif"",""img/Fire_Down_Distractor.gif"",""img/Fire_Down_Distractor.gif"",""img/Fire_Down_Distractor.gif"",""img/Fire_Down_Distractor.gif"",""img/Fire_Down_Distractor.gif"",""img/Fire_Down_Distractor.gif"",""img/Fire_Down_Distractor.gif"",""img/Fire_Down_Distractor.gif"",""img/Fire_Down_Distractor.gif"",""img/Fire_Down_Distractor.gif"",""img/Fire_Down_Distractor.gif""]","8","targetUp_distractorsDown"
"","","","","","html-keyboard-response","36","123820","0.0-14.0-0.0-0.11","5f8359dc31c65e0fca60103f","619531dcf66c91622fa1b861","6195a215eb11b2ae79bd87fd","null","","null","","","","","main_T1_ITI","","","","",""
"","","","","","visual-search-circle","37","125641","0.0-14.0-0.0-1.11","5f8359dc31c65e0fca60103f","619531dcf66c91622fa1b861","6195a215eb11b2ae79bd87fd","802.9000000003725","","d","true","[[596,346],[346,3],[3,253],[253,596]]","true","4","main_T2_Trial","d","img/Fire_Up_Target.gif","[""img/Fire_Down_Distractor.gif"",""img/Fire_Down_Distractor.gif"",""img/Fire_Down_Distractor.gif"",""img/Fire_Down_Distractor.gif"",""img/Fire_Down_Distractor.gif"",""img/Fire_Down_Distractor.gif"",""img/Fire_Down_Distractor.gif"",""img/Fire_Down_Distractor.gif"",""img/Fire_Down_Distractor.gif"",""img/Fire_Down_Distractor.gif"",""img/Fire_Down_Distractor.gif"",""img/Fire_Down_Distractor.gif""]","4","targetUp_distractorsDown"
"","","","","","html-keyboard-response","38","125643","0.0-14.0-0.0-0.12","5f8359dc31c65e0fca60103f","619531dcf66c91622fa1b861","6195a215eb11b2ae79bd87fd","null","","null","","","","","main_T1_ITI","","","","",""
"","","","","","visual-search-circle","39","127368","0.0-14.0-0.0-1.12","5f8359dc31c65e0fca60103f","619531dcf66c91622fa1b861","6195a215eb11b2ae79bd87fd","712.5","","s","true","[[458,45],[159,35],[0,289],[141,554],[440,564],[599,310]]","false","6","main_T2_Trial","s","img/Fire_Up_Target.gif","[""img/Fire_Down_Distractor.gif"",""img/Fire_Down_Distractor.gif"",""img/Fire_Down_Distractor.gif"",""img/Fire_Down_Distractor.gif"",""img/Fire_Down_Distractor.gif"",""img/Fire_Down_Distractor.gif"",""img/Fire_Down_Distractor.gif"",""img/Fire_Down_Distractor.gif"",""img/Fire_Down_Distractor.gif"",""img/Fire_Down_Distractor.gif"",""img/Fire_Down_Distractor.gif"",""img/Fire_Down_Distractor.gif""]","6","targetUp_distractorsDown"
"","","","","","html-keyboard-response","40","127371","0.0-14.0-0.0-0.13","5f8359dc31c65e0fca60103f","619531dcf66c91622fa1b861","6195a215eb11b2ae79bd87fd","null","","null","","","","","main_T1_ITI","","","","",""
"","","","","","visual-search-circle","41","129182","0.0-14.0-0.0-1.13","5f8359dc31c65e0fca60103f","619531dcf66c91622fa1b861","6195a215eb11b2ae79bd87fd","794.6000000005588","","s","true","[[529,492],[492,70],[70,107],[107,529]]","false","4","main_T2_Trial","s","img/Fire_Down_Target.gif","[""img/Fire_Up_Distractor.gif"",""img/Fire_Up_Distractor.gif"",""img/Fire_Up_Distractor.gif"",""img/Fire_Up_Distractor.gif"",""img/Fire_Up_Distractor.gif"",""img/Fire_Up_Distractor.gif"",""img/Fire_Up_Distractor.gif"",""img/Fire_Up_Distractor.gif"",""img/Fire_Up_Distractor.gif"",""img/Fire_Up_Distractor.gif"",""img/Fire_Up_Distractor.gif"",""img/Fire_Up_Distractor.gif""]","4","targetDown_distractorsUp"
"","","","","","html-keyboard-response","42","129184","0.0-14.0-0.0-0.14","5f8359dc31c65e0fca60103f","619531dcf66c91622fa1b861","6195a215eb11b2ae79bd87fd","null","","null","","","","","main_T1_ITI","","","","",""
"","","","","","visual-search-circle","43","131001","0.0-14.0-0.0-1.14","5f8359dc31c65e0fca60103f","619531dcf66c91622fa1b861","6195a215eb11b2ae79bd87fd","803.3000000007451","","s","false","[[336,597],[594,357],[445,37],[95,80],[28,426]]","true","5","main_T2_Trial","d","img/Fire_Down_Target.gif","[""img/Fire_Up_Distractor.gif"",""img/Fire_Up_Distractor.gif"",""img/Fire_Up_Distractor.gif"",""img/Fire_Up_Distractor.gif"",""img/Fire_Up_Distractor.gif"",""img/Fire_Up_Distractor.gif"",""img/Fire_Up_Distractor.gif"",""img/Fire_Up_Distractor.gif"",""img/Fire_Up_Distractor.gif"",""img/Fire_Up_Distractor.gif"",""img/Fire_Up_Distractor.gif"",""img/Fire_Up_Distractor.gif""]","5","targetDown_distractorsUp"
"","","","","","html-keyboard-response","44","131004","0.0-14.0-0.0-0.15","5f8359dc31c65e0fca60103f","619531dcf66c91622fa1b861","6195a215eb11b2ae79bd87fd","null","","null","","","","","main_T1_ITI","","","","",""
"","","","","","visual-search-circle","45","132681","0.0-14.0-0.0-1.15","5f8359dc31c65e0fca60103f","619531dcf66c91622fa1b861","6195a215eb11b2ae79bd87fd","661.5","","s","true","[[294,599],[599,305],[305,0],[0,294]]","false","4","main_T2_Trial","s","img/Fire_Up_Target.gif","[""img/Fire_Down_Distractor.gif"",""img/Fire_Down_Distractor.gif"",""img/Fire_Down_Distractor.gif"",""img/Fire_Down_Distractor.gif"",""img/Fire_Down_Distractor.gif"",""img/Fire_Down_Distractor.gif"",""img/Fire_Down_Distractor.gif"",""img/Fire_Down_Distractor.gif"",""img/Fire_Down_Distractor.gif"",""img/Fire_Down_Distractor.gif"",""img/Fire_Down_Distractor.gif"",""img/Fire_Down_Distractor.gif""]","4","targetUp_distractorsDown"
"","","","","","html-keyboard-response","46","132683","0.0-14.0-0.0-0.16","5f8359dc31c65e0fca60103f","619531dcf66c91622fa1b861","6195a215eb11b2ae79bd87fd","null","","null","","","","","main_T1_ITI","","","","",""
"","","","","","visual-search-circle","47","134412","0.0-14.0-0.0-1.16","5f8359dc31c65e0fca60103f","619531dcf66c91622fa1b861","6195a215eb11b2ae79bd87fd","716.7000000001863","","s","true","[[591,372],[557,145],[372,8],[145,42],[8,227],[42,454],[227,591],[454,557]]","false","8","main_T2_Trial","s","img/Fire_Up_Target.gif","[""img/Fire_Down_Distractor.gif"",""img/Fire_Down_Distractor.gif"",""img/Fire_Down_Distractor.gif"",""img/Fire_Down_Distractor.gif"",""img/Fire_Down_Distractor.gif"",""img/Fire_Down_Distractor.gif"",""img/Fire_Down_Distractor.gif"",""img/Fire_Down_Distractor.gif"",""img/Fire_Down_Distractor.gif"",""img/Fire_Down_Distractor.gif"",""img/Fire_Down_Distractor.gif"",""img/Fire_Down_Distractor.gif""]","8","targetUp_distractorsDown"
"","","","","","html-keyboard-response","48","134414","0.0-14.0-0.0-0.17","5f8359dc31c65e0fca60103f","619531dcf66c91622fa1b861","6195a215eb11b2ae79bd87fd","null","","null","","","","","main_T1_ITI","","","","",""
"","","","","","visual-search-circle","49","136335","0.0-14.0-0.0-1.17","5f8359dc31c65e0fca60103f","619531dcf66c91622fa1b861","6195a215eb11b2ae79bd87fd","903.5999999996275","","d","true","[[173,28],[18,197],[28,426],[197,581],[426,571],[581,402],[571,173],[402,18]]","true","8","main_T2_Trial","d","img/Fire_Down_Target.gif","[""img/Fire_Up_Distractor.gif"",""img/Fire_Up_Distractor.gif"",""img/Fire_Up_Distractor.gif"",""img/Fire_Up_Distractor.gif"",""img/Fire_Up_Distractor.gif"",""img/Fire_Up_Distractor.gif"",""img/Fire_Up_Distractor.gif"",""img/Fire_Up_Distractor.gif"",""img/Fire_Up_Distractor.gif"",""img/Fire_Up_Distractor.gif"",""img/Fire_Up_Distractor.gif"",""img/Fire_Up_Distractor.gif""]","8","targetDown_distractorsUp"
"","","","","","html-keyboard-response","50","136336","0.0-14.0-0.0-0.18","5f8359dc31c65e0fca60103f","619531dcf66c91622fa1b861","6195a215eb11b2ae79bd87fd","null","","null","","","","","main_T1_ITI","","","","",""
"","","","","","visual-search-circle","51","138298","0.0-14.0-0.0-1.18","5f8359dc31c65e0fca60103f","619531dcf66c91622fa1b861","6195a215eb11b2ae79bd87fd","950.7999999998137","","d","true","[[492,529],[599,292],[481,60],[225,9],[26,176],[33,436],[240,594]]","true","7","main_T2_Trial","d","img/Fire_Down_Target.gif","[""img/Fire_Up_Distractor.gif"",""img/Fire_Up_Distractor.gif"",""img/Fire_Up_Distractor.gif"",""img/Fire_Up_Distractor.gif"",""img/Fire_Up_Distractor.gif"",""img/Fire_Up_Distractor.gif"",""img/Fire_Up_Distractor.gif"",""img/Fire_Up_Distractor.gif"",""img/Fire_Up_Distractor.gif"",""img/Fire_Up_Distractor.gif"",""img/Fire_Up_Distractor.gif"",""img/Fire_Up_Distractor.gif""]","7","targetDown_distractorsUp"
"","","","","","html-keyboard-response","52","142411","0.0-14.0-0.0-0.19","5f8359dc31c65e0fca60103f","619531dcf66c91622fa1b861","6195a215eb11b2ae79bd87fd","4113.199999999255","Wow! You've completed 20 out of 160 trials! </p> <p>  </p><p> Take a quick break, then press any key when you're ready to continue."," ","","","","","main_T1_ITI","","","","",""
"","","","","","visual-search-circle","53","144470","0.0-14.0-0.0-1.19","5f8359dc31c65e0fca60103f","619531dcf66c91622fa1b861","6195a215eb11b2ae79bd87fd","1043.5999999996275","","s","true","[[123,542],[476,542],[585,207],[300,0],[14,207]]","false","5","main_T2_Trial","s","img/Fire_Up_Target.gif","[""img/Fire_Down_Distractor.gif"",""img/Fire_Down_Distractor.gif"",""img/Fire_Down_Distractor.gif"",""img/Fire_Down_Distractor.gif"",""img/Fire_Down_Distractor.gif"",""img/Fire_Down_Distractor.gif"",""img/Fire_Down_Distractor.gif"",""img/Fire_Down_Distractor.gif"",""img/Fire_Down_Distractor.gif"",""img/Fire_Down_Distractor.gif"",""img/Fire_Down_Distractor.gif"",""img/Fire_Down_Distractor.gif""]","5","targetUp_distractorsDown"
"","","","","","html-keyboard-response","54","144476","0.0-14.0-0.0-0.20","5f8359dc31c65e0fca60103f","619531dcf66c91622fa1b861","6195a215eb11b2ae79bd87fd","null","","null","","","","","main_T1_ITI","","","","",""
"","","","","","visual-search-circle","55","146218","0.0-14.0-0.0-1.20","5f8359dc31c65e0fca60103f","619531dcf66c91622fa1b861","6195a215eb11b2ae79bd87fd","732","","s","true","[[320,599],[599,279],[279,0],[0,320]]","false","4","main_T2_Trial","s","img/Fire_Up_Target.gif","[""img/Fire_Down_Distractor.gif"",""img/Fire_Down_Distractor.gif"",""img/Fire_Down_Distractor.gif"",""img/Fire_Down_Distractor.gif"",""img/Fire_Down_Distractor.gif"",""img/Fire_Down_Distractor.gif"",""img/Fire_Down_Distractor.gif"",""img/Fire_Down_Distractor.gif"",""img/Fire_Down_Distractor.gif"",""img/Fire_Down_Distractor.gif"",""img/Fire_Down_Distractor.gif"",""img/Fire_Down_Distractor.gif""]","4","targetUp_distractorsDown"
"","","","","","html-keyboard-response","56","146220","0.0-14.0-0.0-0.21","5f8359dc31c65e0fca60103f","619531dcf66c91622fa1b861","6195a215eb11b2ae79bd87fd","null","","null","","","","","main_T1_ITI","","","","",""
"","","","","","visual-search-circle","57","147947","0.0-14.0-0.0-1.21","5f8359dc31c65e0fca60103f","619531dcf66c91622fa1b861","6195a215eb11b2ae79bd87fd","709.2999999998137","","d","true","[[492,70],[70,107],[107,529],[529,492]]","true","4","main_T2_Trial","d","img/Fire_Up_Target.gif","[""img/Fire_Down_Distractor.gif"",""img/Fire_Down_Distractor.gif"",""img/Fire_Down_Distractor.gif"",""img/Fire_Down_Distractor.gif"",""img/Fire_Down_Distractor.gif"",""img/Fire_Down_Distractor.gif"",""img/Fire_Down_Distractor.gif"",""img/Fire_Down_Distractor.gif"",""img/Fire_Down_Distractor.gif"",""img/Fire_Down_Distractor.gif"",""img/Fire_Down_Distractor.gif"",""img/Fire_Down_Distractor.gif""]","4","targetUp_distractorsDown"
"","","","","","html-keyboard-response","58","147949","0.0-14.0-0.0-0.22","5f8359dc31c65e0fca60103f","619531dcf66c91622fa1b861","6195a215eb11b2ae79bd87fd","null","","null","","","","","main_T1_ITI","","","","",""
"","","","","","visual-search-circle","59","149703","0.0-14.0-0.0-1.22","5f8359dc31c65e0fca60103f","619531dcf66c91622fa1b861","6195a215eb11b2ae79bd87fd","734.9000000003725","","s","true","[[289,0],[11,217],[132,548],[484,536],[581,197]]","false","5","main_T2_Trial","s","img/Fire_Up_Target.gif","[""img/Fire_Down_Distractor.gif"",""img/Fire_Down_Distractor.gif"",""img/Fire_Down_Distractor.gif"",""img/Fire_Down_Distractor.gif"",""img/Fire_Down_Distractor.gif"",""img/Fire_Down_Distractor.gif"",""img/Fire_Down_Distractor.gif"",""img/Fire_Down_Distractor.gif"",""img/Fire_Down_Distractor.gif"",""img/Fire_Down_Distractor.gif"",""img/Fire_Down_Distractor.gif"",""img/Fire_Down_Distractor.gif""]","5","targetUp_distractorsDown"
"","","","","","html-keyboard-response","60","149705","0.0-14.0-0.0-0.23","5f8359dc31c65e0fca60103f","619531dcf66c91622fa1b861","6195a215eb11b2ae79bd87fd","null","","null","","","","","main_T1_ITI","","","","",""
"","","","","","visual-search-circle","61","151204","0.0-14.0-0.0-1.23","5f8359dc31c65e0fca60103f","619531dcf66c91622fa1b861","6195a215eb11b2ae79bd87fd","484.19999999925494","","s","true","[[247,4],[18,197],[70,492],[352,595],[581,402],[529,107]]","false","6","main_T2_Trial","s","img/Fire_Down_Target.gif","[""img/Fire_Up_Distractor.gif"",""img/Fire_Up_Distractor.gif"",""img/Fire_Up_Distractor.gif"",""img/Fire_Up_Distractor.gif"",""img/Fire_Up_Distractor.gif"",""img/Fire_Up_Distractor.gif"",""img/Fire_Up_Distractor.gif"",""img/Fire_Up_Distractor.gif"",""img/Fire_Up_Distractor.gif"",""img/Fire_Up_Distractor.gif"",""img/Fire_Up_Distractor.gif"",""img/Fire_Up_Distractor.gif""]","6","targetDown_distractorsUp"
"","","","","","html-keyboard-response","62","151206","0.0-14.0-0.0-0.24","5f8359dc31c65e0fca60103f","619531dcf66c91622fa1b861","6195a215eb11b2ae79bd87fd","null","","null","","","","","main_T1_ITI","","","","",""
"","","","","","visual-search-circle","63","152991","0.0-14.0-0.0-1.24","5f8359dc31c65e0fca60103f","619531dcf66c91622fa1b861","6195a215eb11b2ae79bd87fd","769.9000000003725","","s","true","[[132,51],[11,382],[289,599],[581,402],[484,63]]","false","5","main_T2_Trial","s","img/Fire_Down_Target.gif","[""img/Fire_Up_Distractor.gif"",""img/Fire_Up_Distractor.gif"",""img/Fire_Up_Distractor.gif"",""img/Fire_Up_Distractor.gif"",""img/Fire_Up_Distractor.gif"",""img/Fire_Up_Distractor.gif"",""img/Fire_Up_Distractor.gif"",""img/Fire_Up_Distractor.gif"",""img/Fire_Up_Distractor.gif"",""img/Fire_Up_Distractor.gif"",""img/Fire_Up_Distractor.gif"",""img/Fire_Up_Distractor.gif""]","5","targetDown_distractorsUp"
"","","","","","html-keyboard-response","64","152993","0.0-14.0-0.0-0.25","5f8359dc31c65e0fca60103f","619531dcf66c91622fa1b861","6195a215eb11b2ae79bd87fd","null","","null","","","","","main_T1_ITI","","","","",""
"","","","","","visual-search-circle","65","154631","0.0-14.0-0.0-1.25","5f8359dc31c65e0fca60103f","619531dcf66c91622fa1b861","6195a215eb11b2ae79bd87fd","630.0999999996275","","s","true","[[37,154],[22,414],[216,588],[473,544],[599,317],[500,76],[250,4]]","false","7","main_T2_Trial","s","img/Fire_Down_Target.gif","[""img/Fire_Up_Distractor.gif"",""img/Fire_Up_Distractor.gif"",""img/Fire_Up_Distractor.gif"",""img/Fire_Up_Distractor.gif"",""img/Fire_Up_Distractor.gif"",""img/Fire_Up_Distractor.gif"",""img/Fire_Up_Distractor.gif"",""img/Fire_Up_Distractor.gif"",""img/Fire_Up_Distractor.gif"",""img/Fire_Up_Distractor.gif"",""img/Fire_Up_Distractor.gif"",""img/Fire_Up_Distractor.gif""]","7","targetDown_distractorsUp"
"","","","","","html-keyboard-response","66","154642","0.0-14.0-0.0-0.26","5f8359dc31c65e0fca60103f","619531dcf66c91622fa1b861","6195a215eb11b2ae79bd87fd","null","","null","","","","","main_T1_ITI","","","","",""
"","","","","","visual-search-circle","67","156325","0.0-14.0-0.0-1.26","5f8359dc31c65e0fca60103f","619531dcf66c91622fa1b861","6195a215eb11b2ae79bd87fd","672.7999999998137","","d","true","[[28,426],[229,591],[484,536],[599,303],[489,67],[236,6],[31,166]]","true","7","main_T2_Trial","d","img/Fire_Up_Target.gif","[""img/Fire_Down_Distractor.gif"",""img/Fire_Down_Distractor.gif"",""img/Fire_Down_Distractor.gif"",""img/Fire_Down_Distractor.gif"",""img/Fire_Down_Distractor.gif"",""img/Fire_Down_Distractor.gif"",""img/Fire_Down_Distractor.gif"",""img/Fire_Down_Distractor.gif"",""img/Fire_Down_Distractor.gif"",""img/Fire_Down_Distractor.gif"",""img/Fire_Down_Distractor.gif"",""img/Fire_Down_Distractor.gif""]","7","targetUp_distractorsDown"
"","","","","","html-keyboard-response","68","156326","0.0-14.0-0.0-0.27","5f8359dc31c65e0fca60103f","619531dcf66c91622fa1b861","6195a215eb11b2ae79bd87fd","null","","null","","","","","main_T1_ITI","","","","",""
"","","","","","visual-search-circle","69","158048","0.0-14.0-0.0-1.27","5f8359dc31c65e0fca60103f","619531dcf66c91622fa1b861","6195a215eb11b2ae79bd87fd","711.6999999992549","","s","true","[[145,557],[372,591],[557,454],[591,227],[454,42],[227,8],[42,145],[8,372]]","false","8","main_T2_Trial","s","img/Fire_Down_Target.gif","[""img/Fire_Up_Distractor.gif"",""img/Fire_Up_Distractor.gif"",""img/Fire_Up_Distractor.gif"",""img/Fire_Up_Distractor.gif"",""img/Fire_Up_Distractor.gif"",""img/Fire_Up_Distractor.gif"",""img/Fire_Up_Distractor.gif"",""img/Fire_Up_Distractor.gif"",""img/Fire_Up_Distractor.gif"",""img/Fire_Up_Distractor.gif"",""img/Fire_Up_Distractor.gif"",""img/Fire_Up_Distractor.gif""]","8","targetDown_distractorsUp"
"","","","","","html-keyboard-response","70","158049","0.0-14.0-0.0-0.28","5f8359dc31c65e0fca60103f","619531dcf66c91622fa1b861","6195a215eb11b2ae79bd87fd","null","","null","","","","","main_T1_ITI","","","","",""
"","","","","","visual-search-circle","71","159618","0.0-14.0-0.0-1.28","5f8359dc31c65e0fca60103f","619531dcf66c91622fa1b861","6195a215eb11b2ae79bd87fd","545","","s","true","[[115,536],[369,591],[571,427],[568,167],[363,6],[110,67],[0,302]]","false","7","main_T2_Trial","s","img/Fire_Down_Target.gif","[""img/Fire_Up_Distractor.gif"",""img/Fire_Up_Distractor.gif"",""img/Fire_Up_Distractor.gif"",""img/Fire_Up_Distractor.gif"",""img/Fire_Up_Distractor.gif"",""img/Fire_Up_Distractor.gif"",""img/Fire_Up_Distractor.gif"",""img/Fire_Up_Distractor.gif"",""img/Fire_Up_Distractor.gif"",""img/Fire_Up_Distractor.gif"",""img/Fire_Up_Distractor.gif"",""img/Fire_Up_Distractor.gif""]","7","targetDown_distractorsUp"
"","","","","","html-keyboard-response","72","159620","0.0-14.0-0.0-0.29","5f8359dc31c65e0fca60103f","619531dcf66c91622fa1b861","6195a215eb11b2ae79bd87fd","null","","null","","","","","main_T1_ITI","","","","",""
"","","","","","visual-search-circle","73","161309","0.0-14.0-0.0-1.29","5f8359dc31c65e0fca60103f","619531dcf66c91622fa1b861","6195a215eb11b2ae79bd87fd","675.5","","s","true","[[387,586],[564,440],[586,212],[440,35],[212,13],[35,159],[13,387],[159,564]]","false","8","main_T2_Trial","s","img/Fire_Down_Target.gif","[""img/Fire_Up_Distractor.gif"",""img/Fire_Up_Distractor.gif"",""img/Fire_Up_Distractor.gif"",""img/Fire_Up_Distractor.gif"",""img/Fire_Up_Distractor.gif"",""img/Fire_Up_Distractor.gif"",""img/Fire_Up_Distractor.gif"",""img/Fire_Up_Distractor.gif"",""img/Fire_Up_Distractor.gif"",""img/Fire_Up_Distractor.gif"",""img/Fire_Up_Distractor.gif"",""img/Fire_Up_Distractor.gif""]","8","targetDown_distractorsUp"
"","","","","","html-keyboard-response","74","161312","0.0-14.0-0.0-0.30","5f8359dc31c65e0fca60103f","619531dcf66c91622fa1b861","6195a215eb11b2ae79bd87fd","null","","null","","","","","main_T1_ITI","","","","",""
"","","","","","visual-search-circle","75","163163","0.0-14.0-0.0-1.30","5f8359dc31c65e0fca60103f","619531dcf66c91622fa1b861","6195a215eb11b2ae79bd87fd","842","","s","true","[[247,4],[36,156],[23,416],[218,588],[475,543],[599,314],[498,75]]","false","7","main_T2_Trial","s","img/Fire_Up_Target.gif","[""img/Fire_Down_Distractor.gif"",""img/Fire_Down_Distractor.gif"",""img/Fire_Down_Distractor.gif"",""img/Fire_Down_Distractor.gif"",""img/Fire_Down_Distractor.gif"",""img/Fire_Down_Distractor.gif"",""img/Fire_Down_Distractor.gif"",""img/Fire_Down_Distractor.gif"",""img/Fire_Down_Distractor.gif"",""img/Fire_Down_Distractor.gif"",""img/Fire_Down_Distractor.gif"",""img/Fire_Down_Distractor.gif""]","7","targetUp_distractorsDown"
"","","","","","html-keyboard-response","76","163165","0.0-14.0-0.0-0.31","5f8359dc31c65e0fca60103f","619531dcf66c91622fa1b861","6195a215eb11b2ae79bd87fd","null","","null","","","","","main_T1_ITI","","","","",""
"","","","","","visual-search-circle","77","165073","0.0-14.0-0.0-1.31","5f8359dc31c65e0fca60103f","619531dcf66c91622fa1b861","6195a215eb11b2ae79bd87fd","893.3999999994412","","s","true","[[0,284],[77,500],[284,599],[500,522],[599,315],[522,99],[315,0],[99,77]]","false","8","main_T2_Trial","s","img/Fire_Up_Target.gif","[""img/Fire_Down_Distractor.gif"",""img/Fire_Down_Distractor.gif"",""img/Fire_Down_Distractor.gif"",""img/Fire_Down_Distractor.gif"",""img/Fire_Down_Distractor.gif"",""img/Fire_Down_Distractor.gif"",""img/Fire_Down_Distractor.gif"",""img/Fire_Down_Distractor.gif"",""img/Fire_Down_Distractor.gif"",""img/Fire_Down_Distractor.gif"",""img/Fire_Down_Distractor.gif"",""img/Fire_Down_Distractor.gif""]","8","targetUp_distractorsDown"
"","","","","","html-keyboard-response","78","165076","0.0-14.0-0.0-0.32","5f8359dc31c65e0fca60103f","619531dcf66c91622fa1b861","6195a215eb11b2ae79bd87fd","null","","null","","","","","main_T1_ITI","","","","",""
"","","","","","visual-search-circle","79","166809","0.0-14.0-0.0-1.32","5f8359dc31c65e0fca60103f","619531dcf66c91622fa1b861","6195a215eb11b2ae79bd87fd","710.6000000005588","","d","true","[[163,567],[463,551],[599,284],[436,32],[136,48],[0,315]]","true","6","main_T2_Trial","d","img/Fire_Down_Target.gif","[""img/Fire_Up_Distractor.gif"",""img/Fire_Up_Distractor.gif"",""img/Fire_Up_Distractor.gif"",""img/Fire_Up_Distractor.gif"",""img/Fire_Up_Distractor.gif"",""img/Fire_Up_Distractor.gif"",""img/Fire_Up_Distractor.gif"",""img/Fire_Up_Distractor.gif"",""img/Fire_Up_Distractor.gif"",""img/Fire_Up_Distractor.gif"",""img/Fire_Up_Distractor.gif"",""img/Fire_Up_Distractor.gif""]","6","targetDown_distractorsUp"
"","","","","","html-keyboard-response","80","166811","0.0-14.0-0.0-0.33","5f8359dc31c65e0fca60103f","619531dcf66c91622fa1b861","6195a215eb11b2ae79bd87fd","null","","null","","","","","main_T1_ITI","","","","",""
"","","","","","visual-search-circle","81","168543","0.0-14.0-0.0-1.33","5f8359dc31c65e0fca60103f","619531dcf66c91622fa1b861","6195a215eb11b2ae79bd87fd","716.7999999998137","","d","true","[[305,0],[91,84],[0,294],[84,508],[294,599],[508,515],[599,305],[515,91]]","true","8","main_T2_Trial","d","img/Fire_Down_Target.gif","[""img/Fire_Up_Distractor.gif"",""img/Fire_Up_Distractor.gif"",""img/Fire_Up_Distractor.gif"",""img/Fire_Up_Distractor.gif"",""img/Fire_Up_Distractor.gif"",""img/Fire_Up_Distractor.gif"",""img/Fire_Up_Distractor.gif"",""img/Fire_Up_Distractor.gif"",""img/Fire_Up_Distractor.gif"",""img/Fire_Up_Distractor.gif"",""img/Fire_Up_Distractor.gif"",""img/Fire_Up_Distractor.gif""]","8","targetDown_distractorsUp"
"","","","","","html-keyboard-response","82","168545","0.0-14.0-0.0-0.34","5f8359dc31c65e0fca60103f","619531dcf66c91622fa1b861","6195a215eb11b2ae79bd87fd","null","","null","","","","","main_T1_ITI","","","","",""
"","","","","","visual-search-circle","83","170047","0.0-14.0-0.0-1.34","5f8359dc31c65e0fca60103f","619531dcf66c91622fa1b861","6195a215eb11b2ae79bd87fd","490.29999999981374","","s","true","[[476,542],[598,268],[422,25],[123,57],[1,331],[177,574]]","false","6","main_T2_Trial","s","img/Fire_Up_Target.gif","[""img/Fire_Down_Distractor.gif"",""img/Fire_Down_Distractor.gif"",""img/Fire_Down_Distractor.gif"",""img/Fire_Down_Distractor.gif"",""img/Fire_Down_Distractor.gif"",""img/Fire_Down_Distractor.gif"",""img/Fire_Down_Distractor.gif"",""img/Fire_Down_Distractor.gif"",""img/Fire_Down_Distractor.gif"",""img/Fire_Down_Distractor.gif"",""img/Fire_Down_Distractor.gif"",""img/Fire_Down_Distractor.gif""]","6","targetUp_distractorsDown"
"","","","","","html-keyboard-response","84","170049","0.0-14.0-0.0-0.35","5f8359dc31c65e0fca60103f","619531dcf66c91622fa1b861","6195a215eb11b2ae79bd87fd","null","","null","","","","","main_T1_ITI","","","","",""
"","","","","","visual-search-circle","85","171785","0.0-14.0-0.0-1.35","5f8359dc31c65e0fca60103f","619531dcf66c91622fa1b861","6195a215eb11b2ae79bd87fd","716.1000000005588","","s","true","[[258,597],[597,341],[341,2],[2,258]]","false","4","main_T2_Trial","s","img/Fire_Up_Target.gif","[""img/Fire_Down_Distractor.gif"",""img/Fire_Down_Distractor.gif"",""img/Fire_Down_Distractor.gif"",""img/Fire_Down_Distractor.gif"",""img/Fire_Down_Distractor.gif"",""img/Fire_Down_Distractor.gif"",""img/Fire_Down_Distractor.gif"",""img/Fire_Down_Distractor.gif"",""img/Fire_Down_Distractor.gif"",""img/Fire_Down_Distractor.gif"",""img/Fire_Down_Distractor.gif"",""img/Fire_Down_Distractor.gif""]","4","targetUp_distractorsDown"
"","","","","","html-keyboard-response","86","171787","0.0-14.0-0.0-0.36","5f8359dc31c65e0fca60103f","619531dcf66c91622fa1b861","6195a215eb11b2ae79bd87fd","null","","null","","","","","main_T1_ITI","","","","",""
"","","","","","visual-search-circle","87","173554","0.0-14.0-0.0-1.36","5f8359dc31c65e0fca60103f","619531dcf66c91622fa1b861","6195a215eb11b2ae79bd87fd","755.1000000005588","","d","true","[[28,173],[173,571],[571,426],[426,28]]","true","4","main_T2_Trial","d","img/Fire_Down_Target.gif","[""img/Fire_Up_Distractor.gif"",""img/Fire_Up_Distractor.gif"",""img/Fire_Up_Distractor.gif"",""img/Fire_Up_Distractor.gif"",""img/Fire_Up_Distractor.gif"",""img/Fire_Up_Distractor.gif"",""img/Fire_Up_Distractor.gif"",""img/Fire_Up_Distractor.gif"",""img/Fire_Up_Distractor.gif"",""img/Fire_Up_Distractor.gif"",""img/Fire_Up_Distractor.gif"",""img/Fire_Up_Distractor.gif""]","4","targetDown_distractorsUp"
"","","","","","html-keyboard-response","88","173556","0.0-14.0-0.0-0.37","5f8359dc31c65e0fca60103f","619531dcf66c91622fa1b861","6195a215eb11b2ae79bd87fd","null","","null","","","","","main_T1_ITI","","","","",""
"","","","","","visual-search-circle","89","175206","0.0-14.0-0.0-1.37","5f8359dc31c65e0fca60103f","619531dcf66c91622fa1b861","6195a215eb11b2ae79bd87fd","641.7999999998137","","s","true","[[445,37],[95,80],[28,426],[336,597],[594,357]]","false","5","main_T2_Trial","s","img/Fire_Down_Target.gif","[""img/Fire_Up_Distractor.gif"",""img/Fire_Up_Distractor.gif"",""img/Fire_Up_Distractor.gif"",""img/Fire_Up_Distractor.gif"",""img/Fire_Up_Distractor.gif"",""img/Fire_Up_Distractor.gif"",""img/Fire_Up_Distractor.gif"",""img/Fire_Up_Distractor.gif"",""img/Fire_Up_Distractor.gif"",""img/Fire_Up_Distractor.gif"",""img/Fire_Up_Distractor.gif"",""img/Fire_Up_Distractor.gif""]","5","targetDown_distractorsUp"
"","","","","","html-keyboard-response","90","175207","0.0-14.0-0.0-0.38","5f8359dc31c65e0fca60103f","619531dcf66c91622fa1b861","6195a215eb11b2ae79bd87fd","null","","null","","","","","main_T1_ITI","","","","",""
"","","","","","visual-search-circle","91","176773","0.0-14.0-0.0-1.38","5f8359dc31c65e0fca60103f","619531dcf66c91622fa1b861","6195a215eb11b2ae79bd87fd","549.5999999996275","","s","true","[[422,574],[590,375],[540,120],[308,0],[71,106],[5,357],[161,566]]","false","7","main_T2_Trial","s","img/Fire_Down_Target.gif","[""img/Fire_Up_Distractor.gif"",""img/Fire_Up_Distractor.gif"",""img/Fire_Up_Distractor.gif"",""img/Fire_Up_Distractor.gif"",""img/Fire_Up_Distractor.gif"",""img/Fire_Up_Distractor.gif"",""img/Fire_Up_Distractor.gif"",""img/Fire_Up_Distractor.gif"",""img/Fire_Up_Distractor.gif"",""img/Fire_Up_Distractor.gif"",""img/Fire_Up_Distractor.gif"",""img/Fire_Up_Distractor.gif""]","7","targetDown_distractorsUp"
"","","","","","html-keyboard-response","92","179815","0.0-14.0-0.0-0.39","5f8359dc31c65e0fca60103f","619531dcf66c91622fa1b861","6195a215eb11b2ae79bd87fd","3041.199999999255","Wow! You've completed 40 out of 160 trials! </p> <p>  </p><p> Take a quick break, then press any key when you're ready to continue."," ","","","","","main_T1_ITI","","","","",""
"","","","","","visual-search-circle","93","181447","0.0-14.0-0.0-1.39","5f8359dc31c65e0fca60103f","619531dcf66c91622fa1b861","6195a215eb11b2ae79bd87fd","621.2999999998137","","s","true","[[119,60],[2,336],[182,576],[480,539],[597,263],[417,23]]","false","6","main_T2_Trial","s","img/Fire_Down_Target.gif","[""img/Fire_Up_Distractor.gif"",""img/Fire_Up_Distractor.gif"",""img/Fire_Up_Distractor.gif"",""img/Fire_Up_Distractor.gif"",""img/Fire_Up_Distractor.gif"",""img/Fire_Up_Distractor.gif"",""img/Fire_Up_Distractor.gif"",""img/Fire_Up_Distractor.gif"",""img/Fire_Up_Distractor.gif"",""img/Fire_Up_Distractor.gif"",""img/Fire_Up_Distractor.gif"",""img/Fire_Up_Distractor.gif""]","6","targetDown_distractorsUp"
"","","","","","html-keyboard-response","94","181453","0.0-14.0-0.0-0.40","5f8359dc31c65e0fca60103f","619531dcf66c91622fa1b861","6195a215eb11b2ae79bd87fd","null","","null","","","","","main_T1_ITI","","","","",""
"","","","","","visual-search-circle","95","183062","0.0-14.0-0.0-1.40","5f8359dc31c65e0fca60103f","619531dcf66c91622fa1b861","6195a215eb11b2ae79bd87fd","594.4000000003725","","s","true","[[557,145],[372,8],[145,42],[8,227],[42,454],[227,591],[454,557],[591,372]]","false","8","main_T2_Trial","s","img/Fire_Up_Target.gif","[""img/Fire_Down_Distractor.gif"",""img/Fire_Down_Distractor.gif"",""img/Fire_Down_Distractor.gif"",""img/Fire_Down_Distractor.gif"",""img/Fire_Down_Distractor.gif"",""img/Fire_Down_Distractor.gif"",""img/Fire_Down_Distractor.gif"",""img/Fire_Down_Distractor.gif"",""img/Fire_Down_Distractor.gif"",""img/Fire_Down_Distractor.gif"",""img/Fire_Down_Distractor.gif"",""img/Fire_Down_Distractor.gif""]","8","targetUp_distractorsDown"
"","","","","","html-keyboard-response","96","183070","0.0-14.0-0.0-0.41","5f8359dc31c65e0fca60103f","619531dcf66c91622fa1b861","6195a215eb11b2ae79bd87fd","null","","null","","","","","main_T1_ITI","","","","",""
"","","","","","visual-search-circle","97","184844","0.0-14.0-0.0-1.41","5f8359dc31c65e0fca60103f","619531dcf66c91622fa1b861","6195a215eb11b2ae79bd87fd","753.7000000001863","","d","true","[[310,0],[18,197],[115,536],[467,548],[588,217]]","true","5","main_T2_Trial","d","img/Fire_Down_Target.gif","[""img/Fire_Up_Distractor.gif"",""img/Fire_Up_Distractor.gif"",""img/Fire_Up_Distractor.gif"",""img/Fire_Up_Distractor.gif"",""img/Fire_Up_Distractor.gif"",""img/Fire_Up_Distractor.gif"",""img/Fire_Up_Distractor.gif"",""img/Fire_Up_Distractor.gif"",""img/Fire_Up_Distractor.gif"",""img/Fire_Up_Distractor.gif"",""img/Fire_Up_Distractor.gif"",""img/Fire_Up_Distractor.gif""]","5","targetDown_distractorsUp"
"","","","","","html-keyboard-response","98","184846","0.0-14.0-0.0-0.42","5f8359dc31c65e0fca60103f","619531dcf66c91622fa1b861","6195a215eb11b2ae79bd87fd","null","","null","","","","","main_T1_ITI","","","","",""
"","","","","","visual-search-circle","99","186518","0.0-14.0-0.0-1.42","5f8359dc31c65e0fca60103f","619531dcf66c91622fa1b861","6195a215eb11b2ae79bd87fd","660.2000000001863","","s","true","[[578,187],[417,23],[187,21],[23,182],[21,412],[182,576],[412,578],[576,417]]","false","8","main_T2_Trial","s","img/Fire_Down_Target.gif","[""img/Fire_Up_Distractor.gif"",""img/Fire_Up_Distractor.gif"",""img/Fire_Up_Distractor.gif"",""img/Fire_Up_Distractor.gif"",""img/Fire_Up_Distractor.gif"",""img/Fire_Up_Distractor.gif"",""img/Fire_Up_Distractor.gif"",""img/Fire_Up_Distractor.gif"",""img/Fire_Up_Distractor.gif"",""img/Fire_Up_Distractor.gif"",""img/Fire_Up_Distractor.gif"",""img/Fire_Up_Distractor.gif""]","8","targetDown_distractorsUp"
"","","","","","html-keyboard-response","100","186519","0.0-14.0-0.0-0.43","5f8359dc31c65e0fca60103f","619531dcf66c91622fa1b861","6195a215eb11b2ae79bd87fd","null","","null","","","","","main_T1_ITI","","","","",""
"","","","","","visual-search-circle","101","188497","0.0-14.0-0.0-1.43","5f8359dc31c65e0fca60103f","619531dcf66c91622fa1b861","6195a215eb11b2ae79bd87fd","969.5999999996275","","d","true","[[574,177],[331,1],[57,123],[25,422],[268,598],[542,476]]","true","6","main_T2_Trial","d","img/Fire_Up_Target.gif","[""img/Fire_Down_Distractor.gif"",""img/Fire_Down_Distractor.gif"",""img/Fire_Down_Distractor.gif"",""img/Fire_Down_Distractor.gif"",""img/Fire_Down_Distractor.gif"",""img/Fire_Down_Distractor.gif"",""img/Fire_Down_Distractor.gif"",""img/Fire_Down_Distractor.gif"",""img/Fire_Down_Distractor.gif"",""img/Fire_Down_Distractor.gif"",""img/Fire_Down_Distractor.gif"",""img/Fire_Down_Distractor.gif""]","6","targetUp_distractorsDown"
"","","","","","html-keyboard-response","102","188499","0.0-14.0-0.0-0.44","5f8359dc31c65e0fca60103f","619531dcf66c91622fa1b861","6195a215eb11b2ae79bd87fd","null","","null","","","","","main_T1_ITI","","","","",""
"","","","","","visual-search-circle","103","190275","0.0-14.0-0.0-1.44","5f8359dc31c65e0fca60103f","619531dcf66c91622fa1b861","6195a215eb11b2ae79bd87fd","761.2999999998137","","d","true","[[273,1],[7,232],[145,557],[496,526],[576,182]]","true","5","main_T2_Trial","d","img/Fire_Down_Target.gif","[""img/Fire_Up_Distractor.gif"",""img/Fire_Up_Distractor.gif"",""img/Fire_Up_Distractor.gif"",""img/Fire_Up_Distractor.gif"",""img/Fire_Up_Distractor.gif"",""img/Fire_Up_Distractor.gif"",""img/Fire_Up_Distractor.gif"",""img/Fire_Up_Distractor.gif"",""img/Fire_Up_Distractor.gif"",""img/Fire_Up_Distractor.gif"",""img/Fire_Up_Distractor.gif"",""img/Fire_Up_Distractor.gif""]","5","targetDown_distractorsUp"
"","","","","","html-keyboard-response","104","190278","0.0-14.0-0.0-0.45","5f8359dc31c65e0fca60103f","619531dcf66c91622fa1b861","6195a215eb11b2ae79bd87fd","null","","null","","","","","main_T1_ITI","","","","",""
"","","","","","visual-search-circle","105","192107","0.0-14.0-0.0-1.45","5f8359dc31c65e0fca60103f","619531dcf66c91622fa1b861","6195a215eb11b2ae79bd87fd","808.5","","s","false","[[127,545],[426,571],[598,326],[472,54],[173,28],[1,273]]","true","6","main_T2_Trial","d","img/Fire_Up_Target.gif","[""img/Fire_Down_Distractor.gif"",""img/Fire_Down_Distractor.gif"",""img/Fire_Down_Distractor.gif"",""img/Fire_Down_Distractor.gif"",""img/Fire_Down_Distractor.gif"",""img/Fire_Down_Distractor.gif"",""img/Fire_Down_Distractor.gif"",""img/Fire_Down_Distractor.gif"",""img/Fire_Down_Distractor.gif"",""img/Fire_Down_Distractor.gif"",""img/Fire_Down_Distractor.gif"",""img/Fire_Down_Distractor.gif""]","6","targetUp_distractorsDown"
"","","","","","html-keyboard-response","106","192111","0.0-14.0-0.0-0.46","5f8359dc31c65e0fca60103f","619531dcf66c91622fa1b861","6195a215eb11b2ae79bd87fd","null","","null","","","","","main_T1_ITI","","","","",""
"","","","","","visual-search-circle","107","193672","0.0-14.0-0.0-1.46","5f8359dc31c65e0fca60103f","619531dcf66c91622fa1b861","6195a215eb11b2ae79bd87fd","543.2999999998137","","s","false","[[559,150],[344,3],[95,80],[0,322],[131,547],[388,586],[579,409]]","true","7","main_T2_Trial","d","img/Fire_Down_Target.gif","[""img/Fire_Up_Distractor.gif"",""img/Fire_Up_Distractor.gif"",""img/Fire_Up_Distractor.gif"",""img/Fire_Up_Distractor.gif"",""img/Fire_Up_Distractor.gif"",""img/Fire_Up_Distractor.gif"",""img/Fire_Up_Distractor.gif"",""img/Fire_Up_Distractor.gif"",""img/Fire_Up_Distractor.gif"",""img/Fire_Up_Distractor.gif"",""img/Fire_Up_Distractor.gif"",""img/Fire_Up_Distractor.gif""]","7","targetDown_distractorsUp"
"","","","","","html-keyboard-response","108","193675","0.0-14.0-0.0-0.47","5f8359dc31c65e0fca60103f","619531dcf66c91622fa1b861","6195a215eb11b2ae79bd87fd","null","","null","","","","","main_T1_ITI","","","","",""
"","","","","","visual-search-circle","109","195440","0.0-14.0-0.0-1.47","5f8359dc31c65e0fca60103f","619531dcf66c91622fa1b861","6195a215eb11b2ae79bd87fd","758.5","","d","true","[[598,273],[492,70],[273,1],[70,107],[1,326],[107,529],[326,598],[529,492]]","true","8","main_T2_Trial","d","img/Fire_Down_Target.gif","[""img/Fire_Up_Distractor.gif"",""img/Fire_Up_Distractor.gif"",""img/Fire_Up_Distractor.gif"",""img/Fire_Up_Distractor.gif"",""img/Fire_Up_Distractor.gif"",""img/Fire_Up_Distractor.gif"",""img/Fire_Up_Distractor.gif"",""img/Fire_Up_Distractor.gif"",""img/Fire_Up_Distractor.gif"",""img/Fire_Up_Distractor.gif"",""img/Fire_Up_Distractor.gif"",""img/Fire_Up_Distractor.gif""]","8","targetDown_distractorsUp"
"","","","","","html-keyboard-response","110","195443","0.0-14.0-0.0-0.48","5f8359dc31c65e0fca60103f","619531dcf66c91622fa1b861","6195a215eb11b2ae79bd87fd","null","","null","","","","","main_T1_ITI","","","","",""
"","","","","","visual-search-circle","111","197003","0.0-14.0-0.0-1.48","5f8359dc31c65e0fca60103f","619531dcf66c91622fa1b861","6195a215eb11b2ae79bd87fd","545.0999999996275","","s","true","[[119,60],[60,480],[480,539],[539,119]]","false","4","main_T2_Trial","s","img/Fire_Down_Target.gif","[""img/Fire_Up_Distractor.gif"",""img/Fire_Up_Distractor.gif"",""img/Fire_Up_Distractor.gif"",""img/Fire_Up_Distractor.gif"",""img/Fire_Up_Distractor.gif"",""img/Fire_Up_Distractor.gif"",""img/Fire_Up_Distractor.gif"",""img/Fire_Up_Distractor.gif"",""img/Fire_Up_Distractor.gif"",""img/Fire_Up_Distractor.gif"",""img/Fire_Up_Distractor.gif"",""img/Fire_Up_Distractor.gif""]","4","targetDown_distractorsUp"
"","","","","","html-keyboard-response","112","197004","0.0-14.0-0.0-0.49","5f8359dc31c65e0fca60103f","619531dcf66c91622fa1b861","6195a215eb11b2ae79bd87fd","null","","null","","","","","main_T1_ITI","","","","",""
"","","","","","visual-search-circle","113","198642","0.0-14.0-0.0-1.49","5f8359dc31c65e0fca60103f","619531dcf66c91622fa1b861","6195a215eb11b2ae79bd87fd","626.2000000001863","","s","true","[[581,197],[426,28],[197,18],[28,173],[18,402],[173,571],[402,581],[571,426]]","false","8","main_T2_Trial","s","img/Fire_Down_Target.gif","[""img/Fire_Up_Distractor.gif"",""img/Fire_Up_Distractor.gif"",""img/Fire_Up_Distractor.gif"",""img/Fire_Up_Distractor.gif"",""img/Fire_Up_Distractor.gif"",""img/Fire_Up_Distractor.gif"",""img/Fire_Up_Distractor.gif"",""img/Fire_Up_Distractor.gif"",""img/Fire_Up_Distractor.gif"",""img/Fire_Up_Distractor.gif"",""img/Fire_Up_Distractor.gif"",""img/Fire_Up_Distractor.gif""]","8","targetDown_distractorsUp"
"","","","","","html-keyboard-response","114","198644","0.0-14.0-0.0-0.50","5f8359dc31c65e0fca60103f","619531dcf66c91622fa1b861","6195a215eb11b2ae79bd87fd","null","","null","","","","","main_T1_ITI","","","","",""
"","","","","","visual-search-circle","115","200420","0.0-14.0-0.0-1.50","5f8359dc31c65e0fca60103f","619531dcf66c91622fa1b861","6195a215eb11b2ae79bd87fd","756.8999999994412","","d","true","[[331,598],[574,422],[542,123],[268,1],[25,177],[57,476]]","true","6","main_T2_Trial","d","img/Fire_Up_Target.gif","[""img/Fire_Down_Distractor.gif"",""img/Fire_Down_Distractor.gif"",""img/Fire_Down_Distractor.gif"",""img/Fire_Down_Distractor.gif"",""img/Fire_Down_Distractor.gif"",""img/Fire_Down_Distractor.gif"",""img/Fire_Down_Distractor.gif"",""img/Fire_Down_Distractor.gif"",""img/Fire_Down_Distractor.gif"",""img/Fire_Down_Distractor.gif"",""img/Fire_Down_Distractor.gif"",""img/Fire_Down_Distractor.gif""]","6","targetUp_distractorsDown"
"","","","","","html-keyboard-response","116","200423","0.0-14.0-0.0-0.51","5f8359dc31c65e0fca60103f","619531dcf66c91622fa1b861","6195a215eb11b2ae79bd87fd","null","","null","","","","","main_T1_ITI","","","","",""
"","","","","","visual-search-circle","117","202178","0.0-14.0-0.0-1.51","5f8359dc31c65e0fca60103f","619531dcf66c91622fa1b861","6195a215eb11b2ae79bd87fd","733.5","","d","true","[[407,580],[574,422],[580,192],[422,25],[192,19],[25,177],[19,407],[177,574]]","true","8","main_T2_Trial","d","img/Fire_Up_Target.gif","[""img/Fire_Down_Distractor.gif"",""img/Fire_Down_Distractor.gif"",""img/Fire_Down_Distractor.gif"",""img/Fire_Down_Distractor.gif"",""img/Fire_Down_Distractor.gif"",""img/Fire_Down_Distractor.gif"",""img/Fire_Down_Distractor.gif"",""img/Fire_Down_Distractor.gif"",""img/Fire_Down_Distractor.gif"",""img/Fire_Down_Distractor.gif"",""img/Fire_Down_Distractor.gif"",""img/Fire_Down_Distractor.gif""]","8","targetUp_distractorsDown"
"","","","","","html-keyboard-response","118","202179","0.0-14.0-0.0-0.52","5f8359dc31c65e0fca60103f","619531dcf66c91622fa1b861","6195a215eb11b2ae79bd87fd","null","","null","","","","","main_T1_ITI","","","","",""
"","","","","","visual-search-circle","119","203981","0.0-14.0-0.0-1.52","5f8359dc31c65e0fca60103f","619531dcf66c91622fa1b861","6195a215eb11b2ae79bd87fd","781.8999999994412","","d","false","[[412,578],[587,385],[546,128],[319,0],[78,98],[3,347],[152,561]]","false","7","main_T2_Trial","s","img/Fire_Down_Target.gif","[""img/Fire_Up_Distractor.gif"",""img/Fire_Up_Distractor.gif"",""img/Fire_Up_Distractor.gif"",""img/Fire_Up_Distractor.gif"",""img/Fire_Up_Distractor.gif"",""img/Fire_Up_Distractor.gif"",""img/Fire_Up_Distractor.gif"",""img/Fire_Up_Distractor.gif"",""img/Fire_Up_Distractor.gif"",""img/Fire_Up_Distractor.gif"",""img/Fire_Up_Distractor.gif"",""img/Fire_Up_Distractor.gif""]","7","targetDown_distractorsUp"
"","","","","","html-keyboard-response","120","203982","0.0-14.0-0.0-0.53","5f8359dc31c65e0fca60103f","619531dcf66c91622fa1b861","6195a215eb11b2ae79bd87fd","null","","null","","","","","main_T1_ITI","","","","",""
"","","","","","visual-search-circle","121","205864","0.0-14.0-0.0-1.53","5f8359dc31c65e0fca60103f","619531dcf66c91622fa1b861","6195a215eb11b2ae79bd87fd","868.3999999994412","","d","true","[[496,526],[599,287],[476,57],[220,10],[24,181],[35,441],[245,595]]","true","7","main_T2_Trial","d","img/Fire_Up_Target.gif","[""img/Fire_Down_Distractor.gif"",""img/Fire_Down_Distractor.gif"",""img/Fire_Down_Distractor.gif"",""img/Fire_Down_Distractor.gif"",""img/Fire_Down_Distractor.gif"",""img/Fire_Down_Distractor.gif"",""img/Fire_Down_Distractor.gif"",""img/Fire_Down_Distractor.gif"",""img/Fire_Down_Distractor.gif"",""img/Fire_Down_Distractor.gif"",""img/Fire_Down_Distractor.gif"",""img/Fire_Down_Distractor.gif""]","7","targetUp_distractorsDown"
"","","","","","html-keyboard-response","122","205865","0.0-14.0-0.0-0.54","5f8359dc31c65e0fca60103f","619531dcf66c91622fa1b861","6195a215eb11b2ae79bd87fd","null","","null","","","","","main_T1_ITI","","","","",""
"","","","","","visual-search-circle","123","207647","0.0-14.0-0.0-1.54","5f8359dc31c65e0fca60103f","619531dcf66c91622fa1b861","6195a215eb11b2ae79bd87fd","764.7999999998137","","s","true","[[263,2],[23,182],[60,480],[336,597],[576,417],[539,119]]","false","6","main_T2_Trial","s","img/Fire_Down_Target.gif","[""img/Fire_Up_Distractor.gif"",""img/Fire_Up_Distractor.gif"",""img/Fire_Up_Distractor.gif"",""img/Fire_Up_Distractor.gif"",""img/Fire_Up_Distractor.gif"",""img/Fire_Up_Distractor.gif"",""img/Fire_Up_Distractor.gif"",""img/Fire_Up_Distractor.gif"",""img/Fire_Up_Distractor.gif"",""img/Fire_Up_Distractor.gif"",""img/Fire_Up_Distractor.gif"",""img/Fire_Up_Distractor.gif""]","6","targetDown_distractorsUp"
"","","","","","html-keyboard-response","124","207650","0.0-14.0-0.0-0.55","5f8359dc31c65e0fca60103f","619531dcf66c91622fa1b861","6195a215eb11b2ae79bd87fd","null","","null","","","","","main_T1_ITI","","","","",""
"","","","","","visual-search-circle","125","209205","0.0-14.0-0.0-1.55","5f8359dc31c65e0fca60103f","619531dcf66c91622fa1b861","6195a215eb11b2ae79bd87fd","549.6999999992549","","s","true","[[571,173],[173,28],[28,426],[426,571]]","false","4","main_T2_Trial","s","img/Fire_Down_Target.gif","[""img/Fire_Up_Distractor.gif"",""img/Fire_Up_Distractor.gif"",""img/Fire_Up_Distractor.gif"",""img/Fire_Up_Distractor.gif"",""img/Fire_Up_Distractor.gif"",""img/Fire_Up_Distractor.gif"",""img/Fire_Up_Distractor.gif"",""img/Fire_Up_Distractor.gif"",""img/Fire_Up_Distractor.gif"",""img/Fire_Up_Distractor.gif"",""img/Fire_Up_Distractor.gif"",""img/Fire_Up_Distractor.gif""]","4","targetDown_distractorsUp"
"","","","","","html-keyboard-response","126","209206","0.0-14.0-0.0-0.56","5f8359dc31c65e0fca60103f","619531dcf66c91622fa1b861","6195a215eb11b2ae79bd87fd","null","","null","","","","","main_T1_ITI","","","","",""
"","","","","","visual-search-circle","127","210803","0.0-14.0-0.0-1.56","5f8359dc31c65e0fca60103f","619531dcf66c91622fa1b861","6195a215eb11b2ae79bd87fd","584.8000000007451","","s","true","[[99,77],[25,422],[331,598],[593,362],[449,40]]","false","5","main_T2_Trial","s","img/Fire_Down_Target.gif","[""img/Fire_Up_Distractor.gif"",""img/Fire_Up_Distractor.gif"",""img/Fire_Up_Distractor.gif"",""img/Fire_Up_Distractor.gif"",""img/Fire_Up_Distractor.gif"",""img/Fire_Up_Distractor.gif"",""img/Fire_Up_Distractor.gif"",""img/Fire_Up_Distractor.gif"",""img/Fire_Up_Distractor.gif"",""img/Fire_Up_Distractor.gif"",""img/Fire_Up_Distractor.gif"",""img/Fire_Up_Distractor.gif""]","5","targetDown_distractorsUp"
"","","","","","html-keyboard-response","128","210808","0.0-14.0-0.0-0.57","5f8359dc31c65e0fca60103f","619531dcf66c91622fa1b861","6195a215eb11b2ae79bd87fd","null","","null","","","","","main_T1_ITI","","","","",""
"","","","","","visual-search-circle","129","212823","0.0-14.0-0.0-1.57","5f8359dc31c65e0fca60103f","619531dcf66c91622fa1b861","6195a215eb11b2ae79bd87fd","999.0999999996275","","s","false","[[279,0],[30,168],[51,467],[320,599],[569,431],[548,132]]","true","6","main_T2_Trial","d","img/Fire_Down_Target.gif","[""img/Fire_Up_Distractor.gif"",""img/Fire_Up_Distractor.gif"",""img/Fire_Up_Distractor.gif"",""img/Fire_Up_Distractor.gif"",""img/Fire_Up_Distractor.gif"",""img/Fire_Up_Distractor.gif"",""img/Fire_Up_Distractor.gif"",""img/Fire_Up_Distractor.gif"",""img/Fire_Up_Distractor.gif"",""img/Fire_Up_Distractor.gif"",""img/Fire_Up_Distractor.gif"",""img/Fire_Up_Distractor.gif""]","6","targetDown_distractorsUp"
"","","","","","html-keyboard-response","130","212825","0.0-14.0-0.0-0.58","5f8359dc31c65e0fca60103f","619531dcf66c91622fa1b861","6195a215eb11b2ae79bd87fd","null","","null","","","","","main_T1_ITI","","","","",""
"","","","","","visual-search-circle","131","214710","0.0-14.0-0.0-1.58","5f8359dc31c65e0fca60103f","619531dcf66c91622fa1b861","6195a215eb11b2ae79bd87fd","876.2000000001863","","d","true","[[599,305],[454,42],[154,37],[0,294],[145,557],[445,562]]","true","6","main_T2_Trial","d","img/Fire_Up_Target.gif","[""img/Fire_Down_Distractor.gif"",""img/Fire_Down_Distractor.gif"",""img/Fire_Down_Distractor.gif"",""img/Fire_Down_Distractor.gif"",""img/Fire_Down_Distractor.gif"",""img/Fire_Down_Distractor.gif"",""img/Fire_Down_Distractor.gif"",""img/Fire_Down_Distractor.gif"",""img/Fire_Down_Distractor.gif"",""img/Fire_Down_Distractor.gif"",""img/Fire_Down_Distractor.gif"",""img/Fire_Down_Distractor.gif""]","6","targetUp_distractorsDown"
"","","","","","html-keyboard-response","132","218400","0.0-14.0-0.0-0.59","5f8359dc31c65e0fca60103f","619531dcf66c91622fa1b861","6195a215eb11b2ae79bd87fd","3689.7999999998137","Wow! You've completed 60 out of 160 trials! </p> <p>  </p><p> Take a quick break, then press any key when you're ready to continue."," ","","","","","main_T1_ITI","","","","",""
"","","","","","visual-search-circle","133","220218","0.0-14.0-0.0-1.59","5f8359dc31c65e0fca60103f","619531dcf66c91622fa1b861","6195a215eb11b2ae79bd87fd","802.1000000005588","","d","true","[[84,91],[0,305],[91,515],[305,599],[515,508],[599,294],[508,84],[294,0]]","true","8","main_T2_Trial","d","img/Fire_Up_Target.gif","[""img/Fire_Down_Distractor.gif"",""img/Fire_Down_Distractor.gif"",""img/Fire_Down_Distractor.gif"",""img/Fire_Down_Distractor.gif"",""img/Fire_Down_Distractor.gif"",""img/Fire_Down_Distractor.gif"",""img/Fire_Down_Distractor.gif"",""img/Fire_Down_Distractor.gif"",""img/Fire_Down_Distractor.gif"",""img/Fire_Down_Distractor.gif"",""img/Fire_Down_Distractor.gif"",""img/Fire_Down_Distractor.gif""]","8","targetUp_distractorsDown"
"","","","","","html-keyboard-response","134","220220","0.0-14.0-0.0-0.60","5f8359dc31c65e0fca60103f","619531dcf66c91622fa1b861","6195a215eb11b2ae79bd87fd","null","","null","","","","","main_T1_ITI","","","","",""
"","","","","","visual-search-circle","135","222244","0.0-14.0-0.0-1.60","5f8359dc31c65e0fca60103f","619531dcf66c91622fa1b861","6195a215eb11b2ae79bd87fd","1004.5","","d","true","[[422,574],[590,375],[540,120],[308,0],[71,106],[5,357],[161,566]]","true","7","main_T2_Trial","d","img/Fire_Down_Target.gif","[""img/Fire_Up_Distractor.gif"",""img/Fire_Up_Distractor.gif"",""img/Fire_Up_Distractor.gif"",""img/Fire_Up_Distractor.gif"",""img/Fire_Up_Distractor.gif"",""img/Fire_Up_Distractor.gif"",""img/Fire_Up_Distractor.gif"",""img/Fire_Up_Distractor.gif"",""img/Fire_Up_Distractor.gif"",""img/Fire_Up_Distractor.gif"",""img/Fire_Up_Distractor.gif"",""img/Fire_Up_Distractor.gif""]","7","targetDown_distractorsUp"
"","","","","","html-keyboard-response","136","222245","0.0-14.0-0.0-0.61","5f8359dc31c65e0fca60103f","619531dcf66c91622fa1b861","6195a215eb11b2ae79bd87fd","null","","null","","","","","main_T1_ITI","","","","",""
"","","","","","visual-search-circle","137","223802","0.0-14.0-0.0-1.61","5f8359dc31c65e0fca60103f","619531dcf66c91622fa1b861","6195a215eb11b2ae79bd87fd","545.7000000001863","","s","true","[[548,467],[467,51],[51,132],[132,548]]","false","4","main_T2_Trial","s","img/Fire_Down_Target.gif","[""img/Fire_Up_Distractor.gif"",""img/Fire_Up_Distractor.gif"",""img/Fire_Up_Distractor.gif"",""img/Fire_Up_Distractor.gif"",""img/Fire_Up_Distractor.gif"",""img/Fire_Up_Distractor.gif"",""img/Fire_Up_Distractor.gif"",""img/Fire_Up_Distractor.gif"",""img/Fire_Up_Distractor.gif"",""img/Fire_Up_Distractor.gif"",""img/Fire_Up_Distractor.gif"",""img/Fire_Up_Distractor.gif""]","4","targetDown_distractorsUp"
"","","","","","html-keyboard-response","138","223804","0.0-14.0-0.0-0.62","5f8359dc31c65e0fca60103f","619531dcf66c91622fa1b861","6195a215eb11b2ae79bd87fd","null","","null","","","","","main_T1_ITI","","","","",""
"","","","","","visual-search-circle","139","225370","0.0-14.0-0.0-1.62","5f8359dc31c65e0fca60103f","619531dcf66c91622fa1b861","6195a215eb11b2ae79bd87fd","546.5","","s","true","[[10,377],[377,589],[589,222],[222,10]]","false","4","main_T2_Trial","s","img/Fire_Down_Target.gif","[""img/Fire_Up_Distractor.gif"",""img/Fire_Up_Distractor.gif"",""img/Fire_Up_Distractor.gif"",""img/Fire_Up_Distractor.gif"",""img/Fire_Up_Distractor.gif"",""img/Fire_Up_Distractor.gif"",""img/Fire_Up_Distractor.gif"",""img/Fire_Up_Distractor.gif"",""img/Fire_Up_Distractor.gif"",""img/Fire_Up_Distractor.gif"",""img/Fire_Up_Distractor.gif"",""img/Fire_Up_Distractor.gif""]","4","targetDown_distractorsUp"
"","","","","","html-keyboard-response","140","225375","0.0-14.0-0.0-0.63","5f8359dc31c65e0fca60103f","619531dcf66c91622fa1b861","6195a215eb11b2ae79bd87fd","null","","null","","","","","main_T1_ITI","","","","",""
"","","","","","visual-search-circle","141","227063","0.0-14.0-0.0-1.63","5f8359dc31c65e0fca60103f","619531dcf66c91622fa1b861","6195a215eb11b2ae79bd87fd","676.2000000001863","","s","true","[[458,554],[598,334],[512,88],[267,1],[46,139],[16,398],[200,582]]","false","7","main_T2_Trial","s","img/Fire_Down_Target.gif","[""img/Fire_Up_Distractor.gif"",""img/Fire_Up_Distractor.gif"",""img/Fire_Up_Distractor.gif"",""img/Fire_Up_Distractor.gif"",""img/Fire_Up_Distractor.gif"",""img/Fire_Up_Distractor.gif"",""img/Fire_Up_Distractor.gif"",""img/Fire_Up_Distractor.gif"",""img/Fire_Up_Distractor.gif"",""img/Fire_Up_Distractor.gif"",""img/Fire_Up_Distractor.gif"",""img/Fire_Up_Distractor.gif""]","7","targetDown_distractorsUp"
"","","","","","html-keyboard-response","142","227065","0.0-14.0-0.0-0.64","5f8359dc31c65e0fca60103f","619531dcf66c91622fa1b861","6195a215eb11b2ae79bd87fd","null","","null","","","","","main_T1_ITI","","","","",""
"","","","","","visual-search-circle","143","228753","0.0-14.0-0.0-1.64","5f8359dc31c65e0fca60103f","619531dcf66c91622fa1b861","6195a215eb11b2ae79bd87fd","668","","s","true","[[412,578],[587,385],[546,128],[319,0],[78,98],[3,347],[152,561]]","false","7","main_T2_Trial","s","img/Fire_Up_Target.gif","[""img/Fire_Down_Distractor.gif"",""img/Fire_Down_Distractor.gif"",""img/Fire_Down_Distractor.gif"",""img/Fire_Down_Distractor.gif"",""img/Fire_Down_Distractor.gif"",""img/Fire_Down_Distractor.gif"",""img/Fire_Down_Distractor.gif"",""img/Fire_Down_Distractor.gif"",""img/Fire_Down_Distractor.gif"",""img/Fire_Down_Distractor.gif"",""img/Fire_Down_Distractor.gif"",""img/Fire_Down_Distractor.gif""]","7","targetUp_distractorsDown"
"","","","","","html-keyboard-response","144","228755","0.0-14.0-0.0-0.65","5f8359dc31c65e0fca60103f","619531dcf66c91622fa1b861","6195a215eb11b2ae79bd87fd","null","","null","","","","","main_T1_ITI","","","","",""
"","","","","","visual-search-circle","145","230619","0.0-14.0-0.0-1.65","5f8359dc31c65e0fca60103f","619531dcf66c91622fa1b861","6195a215eb11b2ae79bd87fd","848.7999999998137","","s","true","[[40,450],[299,600],[559,450],[559,150],[300,0],[40,150]]","false","6","main_T2_Trial","s","img/Fire_Up_Target.gif","[""img/Fire_Down_Distractor.gif"",""img/Fire_Down_Distractor.gif"",""img/Fire_Down_Distractor.gif"",""img/Fire_Down_Distractor.gif"",""img/Fire_Down_Distractor.gif"",""img/Fire_Down_Distractor.gif"",""img/Fire_Down_Distractor.gif"",""img/Fire_Down_Distractor.gif"",""img/Fire_Down_Distractor.gif"",""img/Fire_Down_Distractor.gif"",""img/Fire_Down_Distractor.gif"",""img/Fire_Down_Distractor.gif""]","6","targetUp_distractorsDown"
"","","","","","html-keyboard-response","146","230621","0.0-14.0-0.0-0.66","5f8359dc31c65e0fca60103f","619531dcf66c91622fa1b861","6195a215eb11b2ae79bd87fd","null","","null","","","","","main_T1_ITI","","","","",""
"","","","","","visual-search-circle","147","232268","0.0-14.0-0.0-1.66","5f8359dc31c65e0fca60103f","619531dcf66c91622fa1b861","6195a215eb11b2ae79bd87fd","642.5","","s","true","[[591,227],[320,0],[21,187],[107,529],[458,554]]","false","5","main_T2_Trial","s","img/Fire_Up_Target.gif","[""img/Fire_Down_Distractor.gif"",""img/Fire_Down_Distractor.gif"",""img/Fire_Down_Distractor.gif"",""img/Fire_Down_Distractor.gif"",""img/Fire_Down_Distractor.gif"",""img/Fire_Down_Distractor.gif"",""img/Fire_Down_Distractor.gif"",""img/Fire_Down_Distractor.gif"",""img/Fire_Down_Distractor.gif"",""img/Fire_Down_Distractor.gif"",""img/Fire_Down_Distractor.gif"",""img/Fire_Down_Distractor.gif""]","5","targetUp_distractorsDown"
"","","","","","html-keyboard-response","148","232270","0.0-14.0-0.0-0.67","5f8359dc31c65e0fca60103f","619531dcf66c91622fa1b861","6195a215eb11b2ae79bd87fd","null","","null","","","","","main_T1_ITI","","","","",""
"","","","","","visual-search-circle","149","233860","0.0-14.0-0.0-1.67","5f8359dc31c65e0fca60103f","619531dcf66c91622fa1b861","6195a215eb11b2ae79bd87fd","584.7999999998137","","s","true","[[382,11],[11,217],[217,588],[588,382]]","false","4","main_T2_Trial","s","img/Fire_Up_Target.gif","[""img/Fire_Down_Distractor.gif"",""img/Fire_Down_Distractor.gif"",""img/Fire_Down_Distractor.gif"",""img/Fire_Down_Distractor.gif"",""img/Fire_Down_Distractor.gif"",""img/Fire_Down_Distractor.gif"",""img/Fire_Down_Distractor.gif"",""img/Fire_Down_Distractor.gif"",""img/Fire_Down_Distractor.gif"",""img/Fire_Down_Distractor.gif"",""img/Fire_Down_Distractor.gif"",""img/Fire_Down_Distractor.gif""]","4","targetUp_distractorsDown"
"","","","","","html-keyboard-response","150","233862","0.0-14.0-0.0-0.68","5f8359dc31c65e0fca60103f","619531dcf66c91622fa1b861","6195a215eb11b2ae79bd87fd","null","","null","","","","","main_T1_ITI","","","","",""
"","","","","","visual-search-circle","151","235471","0.0-14.0-0.0-1.68","5f8359dc31c65e0fca60103f","619531dcf66c91622fa1b861","6195a215eb11b2ae79bd87fd","589.8000000007451","","s","true","[[11,217],[132,548],[484,536],[581,197],[289,0]]","false","5","main_T2_Trial","s","img/Fire_Up_Target.gif","[""img/Fire_Down_Distractor.gif"",""img/Fire_Down_Distractor.gif"",""img/Fire_Down_Distractor.gif"",""img/Fire_Down_Distractor.gif"",""img/Fire_Down_Distractor.gif"",""img/Fire_Down_Distractor.gif"",""img/Fire_Down_Distractor.gif"",""img/Fire_Down_Distractor.gif"",""img/Fire_Down_Distractor.gif"",""img/Fire_Down_Distractor.gif"",""img/Fire_Down_Distractor.gif"",""img/Fire_Down_Distractor.gif""]","5","targetUp_distractorsDown"
"","","","","","html-keyboard-response","152","235473","0.0-14.0-0.0-0.69","5f8359dc31c65e0fca60103f","619531dcf66c91622fa1b861","6195a215eb11b2ae79bd87fd","null","","null","","","","","main_T1_ITI","","","","",""
"","","","","","visual-search-circle","153","237078","0.0-14.0-0.0-1.69","5f8359dc31c65e0fca60103f","619531dcf66c91622fa1b861","6195a215eb11b2ae79bd87fd","588.1999999992549","","s","true","[[268,1],[25,177],[57,476],[331,598],[574,422],[542,123]]","false","6","main_T2_Trial","s","img/Fire_Up_Target.gif","[""img/Fire_Down_Distractor.gif"",""img/Fire_Down_Distractor.gif"",""img/Fire_Down_Distractor.gif"",""img/Fire_Down_Distractor.gif"",""img/Fire_Down_Distractor.gif"",""img/Fire_Down_Distractor.gif"",""img/Fire_Down_Distractor.gif"",""img/Fire_Down_Distractor.gif"",""img/Fire_Down_Distractor.gif"",""img/Fire_Down_Distractor.gif"",""img/Fire_Down_Distractor.gif"",""img/Fire_Down_Distractor.gif""]","6","targetUp_distractorsDown"
"","","","","","html-keyboard-response","154","237088","0.0-14.0-0.0-0.70","5f8359dc31c65e0fca60103f","619531dcf66c91622fa1b861","6195a215eb11b2ae79bd87fd","null","","null","","","","","main_T1_ITI","","","","",""
"","","","","","visual-search-circle","155","239002","0.0-14.0-0.0-1.70","5f8359dc31c65e0fca60103f","619531dcf66c91622fa1b861","6195a215eb11b2ae79bd87fd","889","","d","true","[[467,51],[242,5],[51,132],[5,357],[132,548],[357,594],[548,467],[594,242]]","true","8","main_T2_Trial","d","img/Fire_Up_Target.gif","[""img/Fire_Down_Distractor.gif"",""img/Fire_Down_Distractor.gif"",""img/Fire_Down_Distractor.gif"",""img/Fire_Down_Distractor.gif"",""img/Fire_Down_Distractor.gif"",""img/Fire_Down_Distractor.gif"",""img/Fire_Down_Distractor.gif"",""img/Fire_Down_Distractor.gif"",""img/Fire_Down_Distractor.gif"",""img/Fire_Down_Distractor.gif"",""img/Fire_Down_Distractor.gif"",""img/Fire_Down_Distractor.gif""]","8","targetUp_distractorsDown"
"","","","","","html-keyboard-response","156","239005","0.0-14.0-0.0-0.71","5f8359dc31c65e0fca60103f","619531dcf66c91622fa1b861","6195a215eb11b2ae79bd87fd","null","","null","","","","","main_T1_ITI","","","","",""
"","","","","","visual-search-circle","157","241054","0.0-14.0-0.0-1.71","5f8359dc31c65e0fca60103f","619531dcf66c91622fa1b861","6195a215eb11b2ae79bd87fd","1029.4000000003725","","s","true","[[253,3],[57,123],[3,346],[123,542],[346,596],[542,476],[596,253],[476,57]]","false","8","main_T2_Trial","s","img/Fire_Down_Target.gif","[""img/Fire_Up_Distractor.gif"",""img/Fire_Up_Distractor.gif"",""img/Fire_Up_Distractor.gif"",""img/Fire_Up_Distractor.gif"",""img/Fire_Up_Distractor.gif"",""img/Fire_Up_Distractor.gif"",""img/Fire_Up_Distractor.gif"",""img/Fire_Up_Distractor.gif"",""img/Fire_Up_Distractor.gif"",""img/Fire_Up_Distractor.gif"",""img/Fire_Up_Distractor.gif"",""img/Fire_Up_Distractor.gif""]","8","targetDown_distractorsUp"
"","","","","","html-keyboard-response","158","241055","0.0-14.0-0.0-0.72","5f8359dc31c65e0fca60103f","619531dcf66c91622fa1b861","6195a215eb11b2ae79bd87fd","null","","null","","","","","main_T1_ITI","","","","",""
"","","","","","visual-search-circle","159","242874","0.0-14.0-0.0-1.72","5f8359dc31c65e0fca60103f","619531dcf66c91622fa1b861","6195a215eb11b2ae79bd87fd","804.2999999998137","","d","true","[[362,593],[568,434],[572,173],[371,8],[116,62],[0,295],[109,531]]","true","7","main_T2_Trial","d","img/Fire_Down_Target.gif","[""img/Fire_Up_Distractor.gif"",""img/Fire_Up_Distractor.gif"",""img/Fire_Up_Distractor.gif"",""img/Fire_Up_Distractor.gif"",""img/Fire_Up_Distractor.gif"",""img/Fire_Up_Distractor.gif"",""img/Fire_Up_Distractor.gif"",""img/Fire_Up_Distractor.gif"",""img/Fire_Up_Distractor.gif"",""img/Fire_Up_Distractor.gif"",""img/Fire_Up_Distractor.gif"",""img/Fire_Up_Distractor.gif""]","7","targetDown_distractorsUp"
"","","","","","html-keyboard-response","160","242877","0.0-14.0-0.0-0.73","5f8359dc31c65e0fca60103f","619531dcf66c91622fa1b861","6195a215eb11b2ae79bd87fd","null","","null","","","","","main_T1_ITI","","","","",""
"","","","","","visual-search-circle","161","244415","0.0-14.0-0.0-1.73","5f8359dc31c65e0fca60103f","619531dcf66c91622fa1b861","6195a215eb11b2ae79bd87fd","529.2000000001863","","s","false","[[591,372],[372,8],[8,227],[227,591]]","true","4","main_T2_Trial","d","img/Fire_Down_Target.gif","[""img/Fire_Up_Distractor.gif"",""img/Fire_Up_Distractor.gif"",""img/Fire_Up_Distractor.gif"",""img/Fire_Up_Distractor.gif"",""img/Fire_Up_Distractor.gif"",""img/Fire_Up_Distractor.gif"",""img/Fire_Up_Distractor.gif"",""img/Fire_Up_Distractor.gif"",""img/Fire_Up_Distractor.gif"",""img/Fire_Up_Distractor.gif"",""img/Fire_Up_Distractor.gif"",""img/Fire_Up_Distractor.gif""]","4","targetDown_distractorsUp"
"","","","","","html-keyboard-response","162","244417","0.0-14.0-0.0-0.74","5f8359dc31c65e0fca60103f","619531dcf66c91622fa1b861","6195a215eb11b2ae79bd87fd","null","","null","","","","","main_T1_ITI","","","","",""
"","","","","","visual-search-circle","163","246273","0.0-14.0-0.0-1.74","5f8359dc31c65e0fca60103f","619531dcf66c91622fa1b861","6195a215eb11b2ae79bd87fd","847.9000000003725","","s","false","[[35,440],[440,564],[564,159],[159,35]]","true","4","main_T2_Trial","d","img/Fire_Down_Target.gif","[""img/Fire_Up_Distractor.gif"",""img/Fire_Up_Distractor.gif"",""img/Fire_Up_Distractor.gif"",""img/Fire_Up_Distractor.gif"",""img/Fire_Up_Distractor.gif"",""img/Fire_Up_Distractor.gif"",""img/Fire_Up_Distractor.gif"",""img/Fire_Up_Distractor.gif"",""img/Fire_Up_Distractor.gif"",""img/Fire_Up_Distractor.gif"",""img/Fire_Up_Distractor.gif"",""img/Fire_Up_Distractor.gif""]","4","targetDown_distractorsUp"
"","","","","","html-keyboard-response","164","246275","0.0-14.0-0.0-0.75","5f8359dc31c65e0fca60103f","619531dcf66c91622fa1b861","6195a215eb11b2ae79bd87fd","null","","null","","","","","main_T1_ITI","","","","",""
"","","","","","visual-search-circle","165","247935","0.0-14.0-0.0-1.75","5f8359dc31c65e0fca60103f","619531dcf66c91622fa1b861","6195a215eb11b2ae79bd87fd","653.2999999998137","","s","true","[[242,5],[5,357],[357,594],[594,242]]","false","4","main_T2_Trial","s","img/Fire_Up_Target.gif","[""img/Fire_Down_Distractor.gif"",""img/Fire_Down_Distractor.gif"",""img/Fire_Down_Distractor.gif"",""img/Fire_Down_Distractor.gif"",""img/Fire_Down_Distractor.gif"",""img/Fire_Down_Distractor.gif"",""img/Fire_Down_Distractor.gif"",""img/Fire_Down_Distractor.gif"",""img/Fire_Down_Distractor.gif"",""img/Fire_Down_Distractor.gif"",""img/Fire_Down_Distractor.gif"",""img/Fire_Down_Distractor.gif""]","4","targetUp_distractorsDown"
"","","","","","html-keyboard-response","166","247938","0.0-14.0-0.0-0.76","5f8359dc31c65e0fca60103f","619531dcf66c91622fa1b861","6195a215eb11b2ae79bd87fd","null","","null","","","","","main_T1_ITI","","","","",""
"","","","","","visual-search-circle","167","249774","0.0-14.0-0.0-1.76","5f8359dc31c65e0fca60103f","619531dcf66c91622fa1b861","6195a215eb11b2ae79bd87fd","819","","s","false","[[596,253],[407,19],[111,66],[3,346],[192,580],[488,533]]","true","6","main_T2_Trial","d","img/Fire_Down_Target.gif","[""img/Fire_Up_Distractor.gif"",""img/Fire_Up_Distractor.gif"",""img/Fire_Up_Distractor.gif"",""img/Fire_Up_Distractor.gif"",""img/Fire_Up_Distractor.gif"",""img/Fire_Up_Distractor.gif"",""img/Fire_Up_Distractor.gif"",""img/Fire_Up_Distractor.gif"",""img/Fire_Up_Distractor.gif"",""img/Fire_Up_Distractor.gif"",""img/Fire_Up_Distractor.gif"",""img/Fire_Up_Distractor.gif""]","6","targetDown_distractorsUp"
"","","","","","html-keyboard-response","168","249776","0.0-14.0-0.0-0.77","5f8359dc31c65e0fca60103f","619531dcf66c91622fa1b861","6195a215eb11b2ae79bd87fd","null","","null","","","","","main_T1_ITI","","","","",""
"","","","","","visual-search-circle","169","251445","0.0-14.0-0.0-1.77","5f8359dc31c65e0fca60103f","619531dcf66c91622fa1b861","6195a215eb11b2ae79bd87fd","646.6999999992549","","s","false","[[586,212],[440,35],[212,13],[35,159],[13,387],[159,564],[387,586],[564,440]]","true","8","main_T2_Trial","d","img/Fire_Down_Target.gif","[""img/Fire_Up_Distractor.gif"",""img/Fire_Up_Distractor.gif"",""img/Fire_Up_Distractor.gif"",""img/Fire_Up_Distractor.gif"",""img/Fire_Up_Distractor.gif"",""img/Fire_Up_Distractor.gif"",""img/Fire_Up_Distractor.gif"",""img/Fire_Up_Distractor.gif"",""img/Fire_Up_Distractor.gif"",""img/Fire_Up_Distractor.gif"",""img/Fire_Up_Distractor.gif"",""img/Fire_Up_Distractor.gif""]","8","targetDown_distractorsUp"
"","","","","","html-keyboard-response","170","251452","0.0-14.0-0.0-0.78","5f8359dc31c65e0fca60103f","619531dcf66c91622fa1b861","6195a215eb11b2ae79bd87fd","null","","null","","","","","main_T1_ITI","","","","",""
"","","","","","visual-search-circle","171","253081","0.0-14.0-0.0-1.78","5f8359dc31c65e0fca60103f","619531dcf66c91622fa1b861","6195a215eb11b2ae79bd87fd","619.0999999996275","","s","true","[[16,202],[30,431],[202,583],[431,569],[583,397],[569,168],[397,16],[168,30]]","false","8","main_T2_Trial","s","img/Fire_Down_Target.gif","[""img/Fire_Up_Distractor.gif"",""img/Fire_Up_Distractor.gif"",""img/Fire_Up_Distractor.gif"",""img/Fire_Up_Distractor.gif"",""img/Fire_Up_Distractor.gif"",""img/Fire_Up_Distractor.gif"",""img/Fire_Up_Distractor.gif"",""img/Fire_Up_Distractor.gif"",""img/Fire_Up_Distractor.gif"",""img/Fire_Up_Distractor.gif"",""img/Fire_Up_Distractor.gif"",""img/Fire_Up_Distractor.gif""]","8","targetDown_distractorsUp"
"","","","","","html-keyboard-response","172","256238","0.0-14.0-0.0-0.79","5f8359dc31c65e0fca60103f","619531dcf66c91622fa1b861","6195a215eb11b2ae79bd87fd","3156.699999999255","Wow! You've completed 80 out of 160 trials! </p> <p>  </p><p> Take a quick break, then press any key when you're ready to continue.","s","","","","","main_T1_ITI","","","","",""
"","","","","","visual-search-circle","173","257904","0.0-14.0-0.0-1.79","5f8359dc31c65e0fca60103f","619531dcf66c91622fa1b861","6195a215eb11b2ae79bd87fd","640.2000000001863","","s","true","[[585,392],[550,134],[326,1],[83,92],[2,340],[146,557],[405,580]]","false","7","main_T2_Trial","s","img/Fire_Down_Target.gif","[""img/Fire_Up_Distractor.gif"",""img/Fire_Up_Distractor.gif"",""img/Fire_Up_Distractor.gif"",""img/Fire_Up_Distractor.gif"",""img/Fire_Up_Distractor.gif"",""img/Fire_Up_Distractor.gif"",""img/Fire_Up_Distractor.gif"",""img/Fire_Up_Distractor.gif"",""img/Fire_Up_Distractor.gif"",""img/Fire_Up_Distractor.gif"",""img/Fire_Up_Distractor.gif"",""img/Fire_Up_Distractor.gif""]","7","targetDown_distractorsUp"
"","","","","","html-keyboard-response","174","257906","0.0-14.0-0.0-0.80","5f8359dc31c65e0fca60103f","619531dcf66c91622fa1b861","6195a215eb11b2ae79bd87fd","null","","null","","","","","main_T1_ITI","","","","",""
"","","","","","visual-search-circle","175","260066","0.0-14.0-0.0-1.80","5f8359dc31c65e0fca60103f","619531dcf66c91622fa1b861","6195a215eb11b2ae79bd87fd","1139.7000000001863","","d","true","[[0,294],[145,557],[445,562],[599,305],[454,42],[154,37]]","true","6","main_T2_Trial","d","img/Fire_Down_Target.gif","[""img/Fire_Up_Distractor.gif"",""img/Fire_Up_Distractor.gif"",""img/Fire_Up_Distractor.gif"",""img/Fire_Up_Distractor.gif"",""img/Fire_Up_Distractor.gif"",""img/Fire_Up_Distractor.gif"",""img/Fire_Up_Distractor.gif"",""img/Fire_Up_Distractor.gif"",""img/Fire_Up_Distractor.gif"",""img/Fire_Up_Distractor.gif"",""img/Fire_Up_Distractor.gif"",""img/Fire_Up_Distractor.gif""]","6","targetDown_distractorsUp"
"","","","","","html-keyboard-response","176","260069","0.0-14.0-0.0-0.81","5f8359dc31c65e0fca60103f","619531dcf66c91622fa1b861","6195a215eb11b2ae79bd87fd","null","","null","","","","","main_T1_ITI","","","","",""
"","","","","","visual-search-circle","177","261565","0.0-14.0-0.0-1.81","5f8359dc31c65e0fca60103f","619531dcf66c91622fa1b861","6195a215eb11b2ae79bd87fd","484.79999999981374","","s","true","[[554,141],[367,7],[141,45],[7,232],[45,458],[232,592],[458,554],[592,367]]","false","8","main_T2_Trial","s","img/Fire_Down_Target.gif","[""img/Fire_Up_Distractor.gif"",""img/Fire_Up_Distractor.gif"",""img/Fire_Up_Distractor.gif"",""img/Fire_Up_Distractor.gif"",""img/Fire_Up_Distractor.gif"",""img/Fire_Up_Distractor.gif"",""img/Fire_Up_Distractor.gif"",""img/Fire_Up_Distractor.gif"",""img/Fire_Up_Distractor.gif"",""img/Fire_Up_Distractor.gif"",""img/Fire_Up_Distractor.gif"",""img/Fire_Up_Distractor.gif""]","8","targetDown_distractorsUp"
"","","","","","html-keyboard-response","178","261567","0.0-14.0-0.0-0.82","5f8359dc31c65e0fca60103f","619531dcf66c91622fa1b861","6195a215eb11b2ae79bd87fd","null","","null","","","","","main_T1_ITI","","","","",""
"","","","","","visual-search-circle","179","263145","0.0-14.0-0.0-1.82","5f8359dc31c65e0fca60103f","619531dcf66c91622fa1b861","6195a215eb11b2ae79bd87fd","568.4000000003725","","s","true","[[598,273],[492,70],[273,1],[70,107],[1,326],[107,529],[326,598],[529,492]]","false","8","main_T2_Trial","s","img/Fire_Up_Target.gif","[""img/Fire_Down_Distractor.gif"",""img/Fire_Down_Distractor.gif"",""img/Fire_Down_Distractor.gif"",""img/Fire_Down_Distractor.gif"",""img/Fire_Down_Distractor.gif"",""img/Fire_Down_Distractor.gif"",""img/Fire_Down_Distractor.gif"",""img/Fire_Down_Distractor.gif"",""img/Fire_Down_Distractor.gif"",""img/Fire_Down_Distractor.gif"",""img/Fire_Down_Distractor.gif"",""img/Fire_Down_Distractor.gif""]","8","targetUp_distractorsDown"
"","","","","","html-keyboard-response","180","263148","0.0-14.0-0.0-0.83","5f8359dc31c65e0fca60103f","619531dcf66c91622fa1b861","6195a215eb11b2ae79bd87fd","null","","null","","","","","main_T1_ITI","","","","",""
"","","","","","visual-search-circle","181","265028","0.0-14.0-0.0-1.83","5f8359dc31c65e0fca60103f","619531dcf66c91622fa1b861","6195a215eb11b2ae79bd87fd","868.8999999994412","","d","true","[[591,227],[227,8],[8,372],[372,591]]","true","4","main_T2_Trial","d","img/Fire_Up_Target.gif","[""img/Fire_Down_Distractor.gif"",""img/Fire_Down_Distractor.gif"",""img/Fire_Down_Distractor.gif"",""img/Fire_Down_Distractor.gif"",""img/Fire_Down_Distractor.gif"",""img/Fire_Down_Distractor.gif"",""img/Fire_Down_Distractor.gif"",""img/Fire_Down_Distractor.gif"",""img/Fire_Down_Distractor.gif"",""img/Fire_Down_Distractor.gif"",""img/Fire_Down_Distractor.gif"",""img/Fire_Down_Distractor.gif""]","4","targetUp_distractorsDown"
"","","","","","html-keyboard-response","182","265031","0.0-14.0-0.0-0.84","5f8359dc31c65e0fca60103f","619531dcf66c91622fa1b861","6195a215eb11b2ae79bd87fd","null","","null","","","","","main_T1_ITI","","","","",""
"","","","","","visual-search-circle","183","266835","0.0-14.0-0.0-1.84","5f8359dc31c65e0fca60103f","619531dcf66c91622fa1b861","6195a215eb11b2ae79bd87fd","780.2000000001863","","s","true","[[2,258],[82,506],[325,598],[549,466],[585,208],[406,19],[147,41]]","false","7","main_T2_Trial","s","img/Fire_Down_Target.gif","[""img/Fire_Up_Distractor.gif"",""img/Fire_Up_Distractor.gif"",""img/Fire_Up_Distractor.gif"",""img/Fire_Up_Distractor.gif"",""img/Fire_Up_Distractor.gif"",""img/Fire_Up_Distractor.gif"",""img/Fire_Up_Distractor.gif"",""img/Fire_Up_Distractor.gif"",""img/Fire_Up_Distractor.gif"",""img/Fire_Up_Distractor.gif"",""img/Fire_Up_Distractor.gif"",""img/Fire_Up_Distractor.gif""]","7","targetDown_distractorsUp"
"","","","","","html-keyboard-response","184","266837","0.0-14.0-0.0-0.85","5f8359dc31c65e0fca60103f","619531dcf66c91622fa1b861","6195a215eb11b2ae79bd87fd","null","","null","","","","","main_T1_ITI","","","","",""
"","","","","","visual-search-circle","185","268461","0.0-14.0-0.0-1.85","5f8359dc31c65e0fca60103f","619531dcf66c91622fa1b861","6195a215eb11b2ae79bd87fd","613.7999999998137","","s","true","[[232,7],[29,170],[30,430],[233,592],[487,534],[599,299],[486,64]]","false","7","main_T2_Trial","s","img/Fire_Up_Target.gif","[""img/Fire_Down_Distractor.gif"",""img/Fire_Down_Distractor.gif"",""img/Fire_Down_Distractor.gif"",""img/Fire_Down_Distractor.gif"",""img/Fire_Down_Distractor.gif"",""img/Fire_Down_Distractor.gif"",""img/Fire_Down_Distractor.gif"",""img/Fire_Down_Distractor.gif"",""img/Fire_Down_Distractor.gif"",""img/Fire_Down_Distractor.gif"",""img/Fire_Down_Distractor.gif"",""img/Fire_Down_Distractor.gif""]","7","targetUp_distractorsDown"
"","","","","","html-keyboard-response","186","268465","0.0-14.0-0.0-0.86","5f8359dc31c65e0fca60103f","619531dcf66c91622fa1b861","6195a215eb11b2ae79bd87fd","null","","null","","","","","main_T1_ITI","","","","",""
"","","","","","visual-search-circle","187","270167","0.0-14.0-0.0-1.86","5f8359dc31c65e0fca60103f","619531dcf66c91622fa1b861","6195a215eb11b2ae79bd87fd","692.1000000005588","","d","true","[[192,19],[13,209],[50,467],[275,598],[518,505],[596,257],[451,41]]","true","7","main_T2_Trial","d","img/Fire_Up_Target.gif","[""img/Fire_Down_Distractor.gif"",""img/Fire_Down_Distractor.gif"",""img/Fire_Down_Distractor.gif"",""img/Fire_Down_Distractor.gif"",""img/Fire_Down_Distractor.gif"",""img/Fire_Down_Distractor.gif"",""img/Fire_Down_Distractor.gif"",""img/Fire_Down_Distractor.gif"",""img/Fire_Down_Distractor.gif"",""img/Fire_Down_Distractor.gif"",""img/Fire_Down_Distractor.gif"",""img/Fire_Down_Distractor.gif""]","7","targetUp_distractorsDown"
"","","","","","html-keyboard-response","188","270168","0.0-14.0-0.0-0.87","5f8359dc31c65e0fca60103f","619531dcf66c91622fa1b861","6195a215eb11b2ae79bd87fd","null","","null","","","","","main_T1_ITI","","","","",""
"","","","","","visual-search-circle","189","272494","0.0-14.0-0.0-1.87","5f8359dc31c65e0fca60103f","619531dcf66c91622fa1b861","6195a215eb11b2ae79bd87fd","1304.4000000003725","","d","true","[[454,42],[227,8],[42,145],[8,372],[145,557],[372,591],[557,454],[591,227]]","true","8","main_T2_Trial","d","img/Fire_Up_Target.gif","[""img/Fire_Down_Distractor.gif"",""img/Fire_Down_Distractor.gif"",""img/Fire_Down_Distractor.gif"",""img/Fire_Down_Distractor.gif"",""img/Fire_Down_Distractor.gif"",""img/Fire_Down_Distractor.gif"",""img/Fire_Down_Distractor.gif"",""img/Fire_Down_Distractor.gif"",""img/Fire_Down_Distractor.gif"",""img/Fire_Down_Distractor.gif"",""img/Fire_Down_Distractor.gif"",""img/Fire_Down_Distractor.gif""]","8","targetUp_distractorsDown"
"","","","","","html-keyboard-response","190","272497","0.0-14.0-0.0-0.88","5f8359dc31c65e0fca60103f","619531dcf66c91622fa1b861","6195a215eb11b2ae79bd87fd","null","","null","","","","","main_T1_ITI","","","","",""
"","","","","","visual-search-circle","191","274040","0.0-14.0-0.0-1.88","5f8359dc31c65e0fca60103f","619531dcf66c91622fa1b861","6195a215eb11b2ae79bd87fd","524.5999999996275","","s","false","[[18,197],[197,581],[581,402],[402,18]]","true","4","main_T2_Trial","d","img/Fire_Up_Target.gif","[""img/Fire_Down_Distractor.gif"",""img/Fire_Down_Distractor.gif"",""img/Fire_Down_Distractor.gif"",""img/Fire_Down_Distractor.gif"",""img/Fire_Down_Distractor.gif"",""img/Fire_Down_Distractor.gif"",""img/Fire_Down_Distractor.gif"",""img/Fire_Down_Distractor.gif"",""img/Fire_Down_Distractor.gif"",""img/Fire_Down_Distractor.gif"",""img/Fire_Down_Distractor.gif"",""img/Fire_Down_Distractor.gif""]","4","targetUp_distractorsDown"
"","","","","","html-keyboard-response","192","274046","0.0-14.0-0.0-0.89","5f8359dc31c65e0fca60103f","619531dcf66c91622fa1b861","6195a215eb11b2ae79bd87fd","null","","null","","","","","main_T1_ITI","","","","",""
"","","","","","visual-search-circle","193","275803","0.0-14.0-0.0-1.89","5f8359dc31c65e0fca60103f","619531dcf66c91622fa1b861","6195a215eb11b2ae79bd87fd","742.8000000007451","","s","true","[[598,326],[417,23],[73,103],[42,454],[367,592]]","false","5","main_T2_Trial","s","img/Fire_Down_Target.gif","[""img/Fire_Up_Distractor.gif"",""img/Fire_Up_Distractor.gif"",""img/Fire_Up_Distractor.gif"",""img/Fire_Up_Distractor.gif"",""img/Fire_Up_Distractor.gif"",""img/Fire_Up_Distractor.gif"",""img/Fire_Up_Distractor.gif"",""img/Fire_Up_Distractor.gif"",""img/Fire_Up_Distractor.gif"",""img/Fire_Up_Distractor.gif"",""img/Fire_Up_Distractor.gif"",""img/Fire_Up_Distractor.gif""]","5","targetDown_distractorsUp"
"","","","","","html-keyboard-response","194","275806","0.0-14.0-0.0-0.90","5f8359dc31c65e0fca60103f","619531dcf66c91622fa1b861","6195a215eb11b2ae79bd87fd","null","","null","","","","","main_T1_ITI","","","","",""
"","","","","","visual-search-circle","195","277638","0.0-14.0-0.0-1.90","5f8359dc31c65e0fca60103f","619531dcf66c91622fa1b861","6195a215eb11b2ae79bd87fd","822","","s","true","[[294,0],[84,91],[0,305],[91,515],[305,599],[515,508],[599,294],[508,84]]","false","8","main_T2_Trial","s","img/Fire_Up_Target.gif","[""img/Fire_Down_Distractor.gif"",""img/Fire_Down_Distractor.gif"",""img/Fire_Down_Distractor.gif"",""img/Fire_Down_Distractor.gif"",""img/Fire_Down_Distractor.gif"",""img/Fire_Down_Distractor.gif"",""img/Fire_Down_Distractor.gif"",""img/Fire_Down_Distractor.gif"",""img/Fire_Down_Distractor.gif"",""img/Fire_Down_Distractor.gif"",""img/Fire_Down_Distractor.gif"",""img/Fire_Down_Distractor.gif""]","8","targetUp_distractorsDown"
"","","","","","html-keyboard-response","196","277640","0.0-14.0-0.0-0.91","5f8359dc31c65e0fca60103f","619531dcf66c91622fa1b861","6195a215eb11b2ae79bd87fd","null","","null","","","","","main_T1_ITI","","","","",""
"","","","","","visual-search-circle","197","279358","0.0-14.0-0.0-1.91","5f8359dc31c65e0fca60103f","619531dcf66c91622fa1b861","6195a215eb11b2ae79bd87fd","703.8999999994412","","s","true","[[367,7],[7,232],[232,592],[592,367]]","false","4","main_T2_Trial","s","img/Fire_Up_Target.gif","[""img/Fire_Down_Distractor.gif"",""img/Fire_Down_Distractor.gif"",""img/Fire_Down_Distractor.gif"",""img/Fire_Down_Distractor.gif"",""img/Fire_Down_Distractor.gif"",""img/Fire_Down_Distractor.gif"",""img/Fire_Down_Distractor.gif"",""img/Fire_Down_Distractor.gif"",""img/Fire_Down_Distractor.gif"",""img/Fire_Down_Distractor.gif"",""img/Fire_Down_Distractor.gif"",""img/Fire_Down_Distractor.gif""]","4","targetUp_distractorsDown"
"","","","","","html-keyboard-response","198","279360","0.0-14.0-0.0-0.92","5f8359dc31c65e0fca60103f","619531dcf66c91622fa1b861","6195a215eb11b2ae79bd87fd","null","","null","","","","","main_T1_ITI","","","","",""
"","","","","","visual-search-circle","199","281217","0.0-14.0-0.0-1.92","5f8359dc31c65e0fca60103f","619531dcf66c91622fa1b861","6195a215eb11b2ae79bd87fd","845.5999999996275","","s","false","[[407,19],[19,192],[192,580],[580,407]]","true","4","main_T2_Trial","d","img/Fire_Down_Target.gif","[""img/Fire_Up_Distractor.gif"",""img/Fire_Up_Distractor.gif"",""img/Fire_Up_Distractor.gif"",""img/Fire_Up_Distractor.gif"",""img/Fire_Up_Distractor.gif"",""img/Fire_Up_Distractor.gif"",""img/Fire_Up_Distractor.gif"",""img/Fire_Up_Distractor.gif"",""img/Fire_Up_Distractor.gif"",""img/Fire_Up_Distractor.gif"",""img/Fire_Up_Distractor.gif"",""img/Fire_Up_Distractor.gif""]","4","targetDown_distractorsUp"
"","","","","","html-keyboard-response","200","281218","0.0-14.0-0.0-0.93","5f8359dc31c65e0fca60103f","619531dcf66c91622fa1b861","6195a215eb11b2ae79bd87fd","null","","null","","","","","main_T1_ITI","","","","",""
"","","","","","visual-search-circle","201","282826","0.0-14.0-0.0-1.93","5f8359dc31c65e0fca60103f","619531dcf66c91622fa1b861","6195a215eb11b2ae79bd87fd","592.7999999998137","","s","true","[[119,60],[0,291],[106,529],[358,594],[566,437],[573,177],[374,9]]","false","7","main_T2_Trial","s","img/Fire_Up_Target.gif","[""img/Fire_Down_Distractor.gif"",""img/Fire_Down_Distractor.gif"",""img/Fire_Down_Distractor.gif"",""img/Fire_Down_Distractor.gif"",""img/Fire_Down_Distractor.gif"",""img/Fire_Down_Distractor.gif"",""img/Fire_Down_Distractor.gif"",""img/Fire_Down_Distractor.gif"",""img/Fire_Down_Distractor.gif"",""img/Fire_Down_Distractor.gif"",""img/Fire_Down_Distractor.gif"",""img/Fire_Down_Distractor.gif""]","7","targetUp_distractorsDown"
"","","","","","html-keyboard-response","202","282828","0.0-14.0-0.0-0.94","5f8359dc31c65e0fca60103f","619531dcf66c91622fa1b861","6195a215eb11b2ae79bd87fd","null","","null","","","","","main_T1_ITI","","","","",""
"","","","","","visual-search-circle","203","284565","0.0-14.0-0.0-1.94","5f8359dc31c65e0fca60103f","619531dcf66c91622fa1b861","6195a215eb11b2ae79bd87fd","721.7999999998137","","d","true","[[54,127],[28,426],[273,598],[545,472],[571,173],[326,1]]","true","6","main_T2_Trial","d","img/Fire_Down_Target.gif","[""img/Fire_Up_Distractor.gif"",""img/Fire_Up_Distractor.gif"",""img/Fire_Up_Distractor.gif"",""img/Fire_Up_Distractor.gif"",""img/Fire_Up_Distractor.gif"",""img/Fire_Up_Distractor.gif"",""img/Fire_Up_Distractor.gif"",""img/Fire_Up_Distractor.gif"",""img/Fire_Up_Distractor.gif"",""img/Fire_Up_Distractor.gif"",""img/Fire_Up_Distractor.gif"",""img/Fire_Up_Distractor.gif""]","6","targetDown_distractorsUp"
"","","","","","html-keyboard-response","204","284567","0.0-14.0-0.0-0.95","5f8359dc31c65e0fca60103f","619531dcf66c91622fa1b861","6195a215eb11b2ae79bd87fd","null","","null","","","","","main_T1_ITI","","","","",""
"","","","","","visual-search-circle","205","286236","0.0-14.0-0.0-1.95","5f8359dc31c65e0fca60103f","619531dcf66c91622fa1b861","6195a215eb11b2ae79bd87fd","655.3999999994412","","s","true","[[14,392],[237,593],[522,500],[585,207],[362,6],[77,99]]","false","6","main_T2_Trial","s","img/Fire_Down_Target.gif","[""img/Fire_Up_Distractor.gif"",""img/Fire_Up_Distractor.gif"",""img/Fire_Up_Distractor.gif"",""img/Fire_Up_Distractor.gif"",""img/Fire_Up_Distractor.gif"",""img/Fire_Up_Distractor.gif"",""img/Fire_Up_Distractor.gif"",""img/Fire_Up_Distractor.gif"",""img/Fire_Up_Distractor.gif"",""img/Fire_Up_Distractor.gif"",""img/Fire_Up_Distractor.gif"",""img/Fire_Up_Distractor.gif""]","6","targetDown_distractorsUp"
"","","","","","html-keyboard-response","206","286238","0.0-14.0-0.0-0.96","5f8359dc31c65e0fca60103f","619531dcf66c91622fa1b861","6195a215eb11b2ae79bd87fd","null","","null","","","","","main_T1_ITI","","","","",""
"","","","","","visual-search-circle","207","289837","0.0-14.0-0.0-1.96","5f8359dc31c65e0fca60103f","619531dcf66c91622fa1b861","6195a215eb11b2ae79bd87fd","2586.399999999441","","s","false","[[32,436],[346,596],[596,346],[436,32],[87,87]]","true","5","main_T2_Trial","d","img/Fire_Up_Target.gif","[""img/Fire_Down_Distractor.gif"",""img/Fire_Down_Distractor.gif"",""img/Fire_Down_Distractor.gif"",""img/Fire_Down_Distractor.gif"",""img/Fire_Down_Distractor.gif"",""img/Fire_Down_Distractor.gif"",""img/Fire_Down_Distractor.gif"",""img/Fire_Down_Distractor.gif"",""img/Fire_Down_Distractor.gif"",""img/Fire_Down_Distractor.gif"",""img/Fire_Down_Distractor.gif"",""img/Fire_Down_Distractor.gif""]","5","targetUp_distractorsDown"
"","","","","","html-keyboard-response","208","289892","0.0-14.0-0.0-0.97","5f8359dc31c65e0fca60103f","619531dcf66c91622fa1b861","6195a215eb11b2ae79bd87fd","null","","null","","","","","main_T1_ITI","","","","",""
"","","","","","visual-search-circle","209","293111","0.0-14.0-0.0-1.97","5f8359dc31c65e0fca60103f","619531dcf66c91622fa1b861","6195a215eb11b2ae79bd87fd","2213.399999999441","","s","false","[[569,168],[168,30],[30,431],[431,569]]","true","4","main_T2_Trial","d","img/Fire_Down_Target.gif","[""img/Fire_Up_Distractor.gif"",""img/Fire_Up_Distractor.gif"",""img/Fire_Up_Distractor.gif"",""img/Fire_Up_Distractor.gif"",""img/Fire_Up_Distractor.gif"",""img/Fire_Up_Distractor.gif"",""img/Fire_Up_Distractor.gif"",""img/Fire_Up_Distractor.gif"",""img/Fire_Up_Distractor.gif"",""img/Fire_Up_Distractor.gif"",""img/Fire_Up_Distractor.gif"",""img/Fire_Up_Distractor.gif""]","4","targetDown_distractorsUp"
"","","","","","html-keyboard-response","210","293112","0.0-14.0-0.0-0.98","5f8359dc31c65e0fca60103f","619531dcf66c91622fa1b861","6195a215eb11b2ae79bd87fd","null","","null","","","","","main_T1_ITI","","","","",""
"","","","","","visual-search-circle","211","295979","0.0-14.0-0.0-1.98","5f8359dc31c65e0fca60103f","619531dcf66c91622fa1b861","6195a215eb11b2ae79bd87fd","1854.9000000003725","","d","true","[[159,564],[387,586],[564,440],[586,212],[440,35],[212,13],[35,159],[13,387]]","true","8","main_T2_Trial","d","img/Fire_Down_Target.gif","[""img/Fire_Up_Distractor.gif"",""img/Fire_Up_Distractor.gif"",""img/Fire_Up_Distractor.gif"",""img/Fire_Up_Distractor.gif"",""img/Fire_Up_Distractor.gif"",""img/Fire_Up_Distractor.gif"",""img/Fire_Up_Distractor.gif"",""img/Fire_Up_Distractor.gif"",""img/Fire_Up_Distractor.gif"",""img/Fire_Up_Distractor.gif"",""img/Fire_Up_Distractor.gif"",""img/Fire_Up_Distractor.gif""]","8","targetDown_distractorsUp"
"","","","","","html-keyboard-response","212","429419","0.0-14.0-0.0-0.99","5f8359dc31c65e0fca60103f","619531dcf66c91622fa1b861","6195a215eb11b2ae79bd87fd","133438.10000000056","Wow! You've completed 100 out of 160 trials! </p> <p>  </p><p> Take a quick break, then press any key when you're ready to continue.","arrowup","","","","","main_T1_ITI","","","","",""
"","","","","","visual-search-circle","213","431107","0.0-14.0-0.0-1.99","5f8359dc31c65e0fca60103f","619531dcf66c91622fa1b861","6195a215eb11b2ae79bd87fd","668.4000000003725","","s","false","[[87,87],[10,377],[222,589],[512,512],[589,222],[377,10]]","true","6","main_T2_Trial","d","img/Fire_Up_Target.gif","[""img/Fire_Down_Distractor.gif"",""img/Fire_Down_Distractor.gif"",""img/Fire_Down_Distractor.gif"",""img/Fire_Down_Distractor.gif"",""img/Fire_Down_Distractor.gif"",""img/Fire_Down_Distractor.gif"",""img/Fire_Down_Distractor.gif"",""img/Fire_Down_Distractor.gif"",""img/Fire_Down_Distractor.gif"",""img/Fire_Down_Distractor.gif"",""img/Fire_Down_Distractor.gif"",""img/Fire_Down_Distractor.gif""]","6","targetUp_distractorsDown"
"","","","","","html-keyboard-response","214","431109","0.0-14.0-0.0-0.100","5f8359dc31c65e0fca60103f","619531dcf66c91622fa1b861","6195a215eb11b2ae79bd87fd","null","","null","","","","","main_T1_ITI","","","","",""
"","","","","","visual-search-circle","215","432746","0.0-14.0-0.0-1.100","5f8359dc31c65e0fca60103f","619531dcf66c91622fa1b861","6195a215eb11b2ae79bd87fd","629.4000000003725","","d","true","[[25,177],[33,438],[242,594],[493,528],[599,291],[479,59],[224,9]]","true","7","main_T2_Trial","d","img/Fire_Down_Target.gif","[""img/Fire_Up_Distractor.gif"",""img/Fire_Up_Distractor.gif"",""img/Fire_Up_Distractor.gif"",""img/Fire_Up_Distractor.gif"",""img/Fire_Up_Distractor.gif"",""img/Fire_Up_Distractor.gif"",""img/Fire_Up_Distractor.gif"",""img/Fire_Up_Distractor.gif"",""img/Fire_Up_Distractor.gif"",""img/Fire_Up_Distractor.gif"",""img/Fire_Up_Distractor.gif"",""img/Fire_Up_Distractor.gif""]","7","targetDown_distractorsUp"
"","","","","","html-keyboard-response","216","432748","0.0-14.0-0.0-0.101","5f8359dc31c65e0fca60103f","619531dcf66c91622fa1b861","6195a215eb11b2ae79bd87fd","null","","null","","","","","main_T1_ITI","","","","",""
