"success","timeout","failed_images","failed_audio","failed_video","trial_type","trial_index","time_elapsed","internal_node_id","subject_id","study_id","session_id","rt","stimulus","response","correct","locations","target_present","set_size","task","correct_response","target","foilCM","setSizeCM","searchCondition"
"true","false","[]","[]","[]","preload","0","21708","0.0-0.0","5f983f3b00bbab0c4b28149a","619531dcf66c91622fa1b861","6195a2161d2e6fc9ed9c4f4b","","","","","","","","","","","","",""
"true","","","","","fullscreen","1","26050","0.0-1.0","5f983f3b00bbab0c4b28149a","619531dcf66c91622fa1b861","6195a2161d2e6fc9ed9c4f4b","","","","","","","","","","","","",""
"","","","","","html-keyboard-response","2","34148","0.0-2.0","5f983f3b00bbab0c4b28149a","619531dcf66c91622fa1b861","6195a2161d2e6fc9ed9c4f4b","8096.5999999940395","What a beautiful Thursday to do some awesome science! </p> <p>  </p><p> </p>
    By completing this survey or questionnaire, you are consenting to be in this research study. </p>
    Your participation is voluntary and you can stop at any time.
    <p> [Press any key to continue.] </p>
    
    "," ","","","","","","","","","",""
"","","","","","video-keyboard-response","3","69358","0.0-3.0","5f983f3b00bbab0c4b28149a","619531dcf66c91622fa1b861","6195a2161d2e6fc9ed9c4f4b","35205.40000000596","[""video/TaskInstructions.mp4""]","d","","","","","","","","","",""
"","","","","","html-keyboard-response","4","75103","0.0-4.0","5f983f3b00bbab0c4b28149a","619531dcf66c91622fa1b861","6195a2161d2e6fc9ed9c4f4b","5744","
    <p>First, we're going to do a few practice trials to make sure you understand the task. You will recieve feedback on each trial. </p>
    <p>[Press any key to begin the familiarization phase.]</p>
    ","d","","","","","","","","","",""
"","","","","","visual-search-circle","5","77244","0.0-5.0-0.0","5f983f3b00bbab0c4b28149a","619531dcf66c91622fa1b861","6195a2161d2e6fc9ed9c4f4b","1078.7000000178814","","s","false","[[508,84],[84,91],[91,515],[515,508]]","true","4","training","d","","","",""
"","","","","","html-keyboard-response","6","82519","0.0-6.0","5f983f3b00bbab0c4b28149a","619531dcf66c91622fa1b861","6195a2161d2e6fc9ed9c4f4b","5273.200000017881"," <div style='float: center;'><img src='img/feedbackWrong.png'></img> </div> ","d","","","","","","","","","",""
"","","","","","visual-search-circle","7","84638","0.0-7.0-0.0","5f983f3b00bbab0c4b28149a","619531dcf66c91622fa1b861","6195a2161d2e6fc9ed9c4f4b","1112.5999999940395","","s","true","[[458,45],[45,141],[141,554],[554,458]]","false","4","training","s","","","",""
"","","","","","html-keyboard-response","8","99081","0.0-8.0","5f983f3b00bbab0c4b28149a","619531dcf66c91622fa1b861","6195a2161d2e6fc9ed9c4f4b","14441"," <div style='float: center; '><img src='img/feedbackRight.png'></img> </div> ","s","","","","","","","","","",""
"","","","","","visual-search-circle","9","101044","0.0-9.0-0.0","5f983f3b00bbab0c4b28149a","619531dcf66c91622fa1b861","6195a2161d2e6fc9ed9c4f4b","954.9000000059605","","s","true","[[445,37],[145,42],[0,305],[154,562],[454,557],[599,294]]","false","6","training","s","","","",""
"","","","","","html-keyboard-response","10","105771","0.0-10.0","5f983f3b00bbab0c4b28149a","619531dcf66c91622fa1b861","6195a2161d2e6fc9ed9c4f4b","4726.300000011921"," <div style='float: center; '><img src='img/feedbackRight.png'></img> </div> ","s","","","","","","","","","",""
"","","","","","visual-search-circle","11","107417","0.0-11.0-0.0","5f983f3b00bbab0c4b28149a","619531dcf66c91622fa1b861","6195a2161d2e6fc9ed9c4f4b","635.7000000178814","","d","true","[[508,515],[599,305],[515,91],[305,0],[91,84],[0,294],[84,508],[294,599]]","true","8","training","d","","","",""
"","","","","","html-keyboard-response","12","109457","0.0-12.0","5f983f3b00bbab0c4b28149a","619531dcf66c91622fa1b861","6195a2161d2e6fc9ed9c4f4b","2038.7999999821186"," <div style='float: center; '><img src='img/feedbackRight.png'></img> </div> ","s","","","","","","","","","",""
"","","","","","video-keyboard-response","13","115101","0.0-13.0","5f983f3b00bbab0c4b28149a","619531dcf66c91622fa1b861","6195a2161d2e6fc9ed9c4f4b","5642.5999999940395","[""video/endTraining.mp4""]","s","","","","","","","","","",""
"","","","","","html-keyboard-response","14","115103","0.0-14.0-0.0-0.0","5f983f3b00bbab0c4b28149a","619531dcf66c91622fa1b861","6195a2161d2e6fc9ed9c4f4b","null","","null","","","","","main_T1_ITI","","","","",""
"","","","","","visual-search-circle","15","117111","0.0-14.0-0.0-1.0","5f983f3b00bbab0c4b28149a","619531dcf66c91622fa1b861","6195a2161d2e6fc9ed9c4f4b","999","","d","true","[[326,598],[529,492],[598,273],[492,70],[273,1],[70,107],[1,326],[107,529]]","true","8","main_T2_Trial","d","img/Fire_Down_Target.gif","[""img/Fire_Up_Distractor.gif"",""img/Fire_Up_Distractor.gif"",""img/Fire_Up_Distractor.gif"",""img/Fire_Up_Distractor.gif"",""img/Fire_Up_Distractor.gif"",""img/Fire_Up_Distractor.gif"",""img/Fire_Up_Distractor.gif"",""img/Fire_Up_Distractor.gif"",""img/Fire_Up_Distractor.gif"",""img/Fire_Up_Distractor.gif"",""img/Fire_Up_Distractor.gif"",""img/Fire_Up_Distractor.gif""]","8","targetDown_distractorsUp"
"","","","","","html-keyboard-response","16","117113","0.0-14.0-0.0-0.1","5f983f3b00bbab0c4b28149a","619531dcf66c91622fa1b861","6195a2161d2e6fc9ed9c4f4b","null","","null","","","","","main_T1_ITI","","","","",""
"","","","","","visual-search-circle","17","119281","0.0-14.0-0.0-1.1","5f983f3b00bbab0c4b28149a","619531dcf66c91622fa1b861","6195a2161d2e6fc9ed9c4f4b","1161.800000011921","","d","true","[[242,594],[562,445],[519,95],[173,28],[2,336]]","true","5","main_T2_Trial","d","img/Fire_Up_Target.gif","[""img/Fire_Down_Distractor.gif"",""img/Fire_Down_Distractor.gif"",""img/Fire_Down_Distractor.gif"",""img/Fire_Down_Distractor.gif"",""img/Fire_Down_Distractor.gif"",""img/Fire_Down_Distractor.gif"",""img/Fire_Down_Distractor.gif"",""img/Fire_Down_Distractor.gif"",""img/Fire_Down_Distractor.gif"",""img/Fire_Down_Distractor.gif"",""img/Fire_Down_Distractor.gif"",""img/Fire_Down_Distractor.gif""]","5","targetUp_distractorsDown"
"","","","","","html-keyboard-response","18","119283","0.0-14.0-0.0-0.2","5f983f3b00bbab0c4b28149a","619531dcf66c91622fa1b861","6195a2161d2e6fc9ed9c4f4b","null","","null","","","","","main_T1_ITI","","","","",""
"","","","","","visual-search-circle","19","120985","0.0-14.0-0.0-1.2","5f983f3b00bbab0c4b28149a","619531dcf66c91622fa1b861","6195a2161d2e6fc9ed9c4f4b","693","","s","true","[[476,542],[596,346],[542,123],[346,3],[123,57],[3,253],[57,476],[253,596]]","false","8","main_T2_Trial","s","img/Fire_Up_Target.gif","[""img/Fire_Down_Distractor.gif"",""img/Fire_Down_Distractor.gif"",""img/Fire_Down_Distractor.gif"",""img/Fire_Down_Distractor.gif"",""img/Fire_Down_Distractor.gif"",""img/Fire_Down_Distractor.gif"",""img/Fire_Down_Distractor.gif"",""img/Fire_Down_Distractor.gif"",""img/Fire_Down_Distractor.gif"",""img/Fire_Down_Distractor.gif"",""img/Fire_Down_Distractor.gif"",""img/Fire_Down_Distractor.gif""]","8","targetUp_distractorsDown"
"","","","","","html-keyboard-response","20","120987","0.0-14.0-0.0-0.3","5f983f3b00bbab0c4b28149a","619531dcf66c91622fa1b861","6195a2161d2e6fc9ed9c4f4b","null","","null","","","","","main_T1_ITI","","","","",""
"","","","","","visual-search-circle","21","122843","0.0-14.0-0.0-1.3","5f983f3b00bbab0c4b28149a","619531dcf66c91622fa1b861","6195a2161d2e6fc9ed9c4f4b","845.1999999880791","","d","true","[[80,95],[3,343],[149,559],[408,579],[586,389],[548,131],[323,0]]","true","7","main_T2_Trial","d","img/Fire_Down_Target.gif","[""img/Fire_Up_Distractor.gif"",""img/Fire_Up_Distractor.gif"",""img/Fire_Up_Distractor.gif"",""img/Fire_Up_Distractor.gif"",""img/Fire_Up_Distractor.gif"",""img/Fire_Up_Distractor.gif"",""img/Fire_Up_Distractor.gif"",""img/Fire_Up_Distractor.gif"",""img/Fire_Up_Distractor.gif"",""img/Fire_Up_Distractor.gif"",""img/Fire_Up_Distractor.gif"",""img/Fire_Up_Distractor.gif""]","7","targetDown_distractorsUp"
"","","","","","html-keyboard-response","22","122845","0.0-14.0-0.0-0.4","5f983f3b00bbab0c4b28149a","619531dcf66c91622fa1b861","6195a2161d2e6fc9ed9c4f4b","null","","null","","","","","main_T1_ITI","","","","",""
"","","","","","visual-search-circle","23","124551","0.0-14.0-0.0-1.4","5f983f3b00bbab0c4b28149a","619531dcf66c91622fa1b861","6195a2161d2e6fc9ed9c4f4b","697.5999999940395","","s","true","[[136,48],[48,463],[463,551],[551,136]]","false","4","main_T2_Trial","s","img/Fire_Down_Target.gif","[""img/Fire_Up_Distractor.gif"",""img/Fire_Up_Distractor.gif"",""img/Fire_Up_Distractor.gif"",""img/Fire_Up_Distractor.gif"",""img/Fire_Up_Distractor.gif"",""img/Fire_Up_Distractor.gif"",""img/Fire_Up_Distractor.gif"",""img/Fire_Up_Distractor.gif"",""img/Fire_Up_Distractor.gif"",""img/Fire_Up_Distractor.gif"",""img/Fire_Up_Distractor.gif"",""img/Fire_Up_Distractor.gif""]","4","targetDown_distractorsUp"
"","","","","","html-keyboard-response","24","124553","0.0-14.0-0.0-0.5","5f983f3b00bbab0c4b28149a","619531dcf66c91622fa1b861","6195a2161d2e6fc9ed9c4f4b","null","","null","","","","","main_T1_ITI","","","","",""
"","","","","","visual-search-circle","25","126214","0.0-14.0-0.0-1.5","5f983f3b00bbab0c4b28149a","619531dcf66c91622fa1b861","6195a2161d2e6fc9ed9c4f4b","653.5999999940395","","s","true","[[4,352],[352,595],[595,247],[247,4]]","false","4","main_T2_Trial","s","img/Fire_Up_Target.gif","[""img/Fire_Down_Distractor.gif"",""img/Fire_Down_Distractor.gif"",""img/Fire_Down_Distractor.gif"",""img/Fire_Down_Distractor.gif"",""img/Fire_Down_Distractor.gif"",""img/Fire_Down_Distractor.gif"",""img/Fire_Down_Distractor.gif"",""img/Fire_Down_Distractor.gif"",""img/Fire_Down_Distractor.gif"",""img/Fire_Down_Distractor.gif"",""img/Fire_Down_Distractor.gif"",""img/Fire_Down_Distractor.gif""]","4","targetUp_distractorsDown"
"","","","","","html-keyboard-response","26","126215","0.0-14.0-0.0-0.6","5f983f3b00bbab0c4b28149a","619531dcf66c91622fa1b861","6195a2161d2e6fc9ed9c4f4b","null","","null","","","","","main_T1_ITI","","","","",""
"","","","","","visual-search-circle","27","128182","0.0-14.0-0.0-1.6","5f983f3b00bbab0c4b28149a","619531dcf66c91622fa1b861","6195a2161d2e6fc9ed9c4f4b","960.5","","s","true","[[467,548],[588,217],[310,0],[18,197],[115,536]]","false","5","main_T2_Trial","s","img/Fire_Up_Target.gif","[""img/Fire_Down_Distractor.gif"",""img/Fire_Down_Distractor.gif"",""img/Fire_Down_Distractor.gif"",""img/Fire_Down_Distractor.gif"",""img/Fire_Down_Distractor.gif"",""img/Fire_Down_Distractor.gif"",""img/Fire_Down_Distractor.gif"",""img/Fire_Down_Distractor.gif"",""img/Fire_Down_Distractor.gif"",""img/Fire_Down_Distractor.gif"",""img/Fire_Down_Distractor.gif"",""img/Fire_Down_Distractor.gif""]","5","targetUp_distractorsDown"
"","","","","","html-keyboard-response","28","128184","0.0-14.0-0.0-0.7","5f983f3b00bbab0c4b28149a","619531dcf66c91622fa1b861","6195a2161d2e6fc9ed9c4f4b","null","","null","","","","","main_T1_ITI","","","","",""
"","","","","","visual-search-circle","29","129974","0.0-14.0-0.0-1.7","5f983f3b00bbab0c4b28149a","619531dcf66c91622fa1b861","6195a2161d2e6fc9ed9c4f4b","785","","s","false","[[598,273],[367,7],[42,145],[73,496],[417,576]]","true","5","main_T2_Trial","d","img/Fire_Down_Target.gif","[""img/Fire_Up_Distractor.gif"",""img/Fire_Up_Distractor.gif"",""img/Fire_Up_Distractor.gif"",""img/Fire_Up_Distractor.gif"",""img/Fire_Up_Distractor.gif"",""img/Fire_Up_Distractor.gif"",""img/Fire_Up_Distractor.gif"",""img/Fire_Up_Distractor.gif"",""img/Fire_Up_Distractor.gif"",""img/Fire_Up_Distractor.gif"",""img/Fire_Up_Distractor.gif"",""img/Fire_Up_Distractor.gif""]","5","targetDown_distractorsUp"
"","","","","","html-keyboard-response","30","129976","0.0-14.0-0.0-0.8","5f983f3b00bbab0c4b28149a","619531dcf66c91622fa1b861","6195a2161d2e6fc9ed9c4f4b","null","","null","","","","","main_T1_ITI","","","","",""
"","","","","","visual-search-circle","31","132060","0.0-14.0-0.0-1.8","5f983f3b00bbab0c4b28149a","619531dcf66c91622fa1b861","6195a2161d2e6fc9ed9c4f4b","1075.3999999761581","","s","true","[[70,492],[307,599],[539,481],[590,225],[423,26],[163,33],[5,240]]","false","7","main_T2_Trial","s","img/Fire_Down_Target.gif","[""img/Fire_Up_Distractor.gif"",""img/Fire_Up_Distractor.gif"",""img/Fire_Up_Distractor.gif"",""img/Fire_Up_Distractor.gif"",""img/Fire_Up_Distractor.gif"",""img/Fire_Up_Distractor.gif"",""img/Fire_Up_Distractor.gif"",""img/Fire_Up_Distractor.gif"",""img/Fire_Up_Distractor.gif"",""img/Fire_Up_Distractor.gif"",""img/Fire_Up_Distractor.gif"",""img/Fire_Up_Distractor.gif""]","7","targetDown_distractorsUp"
"","","","","","html-keyboard-response","32","132061","0.0-14.0-0.0-0.9","5f983f3b00bbab0c4b28149a","619531dcf66c91622fa1b861","6195a2161d2e6fc9ed9c4f4b","null","","null","","","","","main_T1_ITI","","","","",""
"","","","","","visual-search-circle","33","133875","0.0-14.0-0.0-1.9","5f983f3b00bbab0c4b28149a","619531dcf66c91622fa1b861","6195a2161d2e6fc9ed9c4f4b","807.5","","d","true","[[599,279],[431,30],[132,51],[0,320],[168,569],[467,548]]","true","6","main_T2_Trial","d","img/Fire_Up_Target.gif","[""img/Fire_Down_Distractor.gif"",""img/Fire_Down_Distractor.gif"",""img/Fire_Down_Distractor.gif"",""img/Fire_Down_Distractor.gif"",""img/Fire_Down_Distractor.gif"",""img/Fire_Down_Distractor.gif"",""img/Fire_Down_Distractor.gif"",""img/Fire_Down_Distractor.gif"",""img/Fire_Down_Distractor.gif"",""img/Fire_Down_Distractor.gif"",""img/Fire_Down_Distractor.gif"",""img/Fire_Down_Distractor.gif""]","6","targetUp_distractorsDown"
"","","","","","html-keyboard-response","34","133877","0.0-14.0-0.0-0.10","5f983f3b00bbab0c4b28149a","619531dcf66c91622fa1b861","6195a2161d2e6fc9ed9c4f4b","null","","null","","","","","main_T1_ITI","","","","",""
"","","","","","visual-search-circle","35","135690","0.0-14.0-0.0-1.10","5f983f3b00bbab0c4b28149a","619531dcf66c91622fa1b861","6195a2161d2e6fc9ed9c4f4b","804.5999999940395","","d","true","[[567,163],[315,0],[48,136],[32,436],[284,599],[551,463]]","true","6","main_T2_Trial","d","img/Fire_Down_Target.gif","[""img/Fire_Up_Distractor.gif"",""img/Fire_Up_Distractor.gif"",""img/Fire_Up_Distractor.gif"",""img/Fire_Up_Distractor.gif"",""img/Fire_Up_Distractor.gif"",""img/Fire_Up_Distractor.gif"",""img/Fire_Up_Distractor.gif"",""img/Fire_Up_Distractor.gif"",""img/Fire_Up_Distractor.gif"",""img/Fire_Up_Distractor.gif"",""img/Fire_Up_Distractor.gif"",""img/Fire_Up_Distractor.gif""]","6","targetDown_distractorsUp"
"","","","","","html-keyboard-response","36","135691","0.0-14.0-0.0-0.11","5f983f3b00bbab0c4b28149a","619531dcf66c91622fa1b861","6195a2161d2e6fc9ed9c4f4b","null","","null","","","","","main_T1_ITI","","","","",""
"","","","","","visual-search-circle","37","137377","0.0-14.0-0.0-1.11","5f983f3b00bbab0c4b28149a","619531dcf66c91622fa1b861","6195a2161d2e6fc9ed9c4f4b","673.5999999940395","","d","true","[[377,589],[559,450],[589,222],[449,40],[222,10],[40,150],[10,377],[150,559]]","true","8","main_T2_Trial","d","img/Fire_Down_Target.gif","[""img/Fire_Up_Distractor.gif"",""img/Fire_Up_Distractor.gif"",""img/Fire_Up_Distractor.gif"",""img/Fire_Up_Distractor.gif"",""img/Fire_Up_Distractor.gif"",""img/Fire_Up_Distractor.gif"",""img/Fire_Up_Distractor.gif"",""img/Fire_Up_Distractor.gif"",""img/Fire_Up_Distractor.gif"",""img/Fire_Up_Distractor.gif"",""img/Fire_Up_Distractor.gif"",""img/Fire_Up_Distractor.gif""]","8","targetDown_distractorsUp"
"","","","","","html-keyboard-response","38","137379","0.0-14.0-0.0-0.12","5f983f3b00bbab0c4b28149a","619531dcf66c91622fa1b861","6195a2161d2e6fc9ed9c4f4b","null","","null","","","","","main_T1_ITI","","","","",""
"","","","","","visual-search-circle","39","138944","0.0-14.0-0.0-1.12","5f983f3b00bbab0c4b28149a","619531dcf66c91622fa1b861","6195a2161d2e6fc9ed9c4f4b","557.2999999821186","","s","true","[[3,253],[78,502],[320,599],[546,470],[587,213],[411,21],[151,39]]","false","7","main_T2_Trial","s","img/Fire_Up_Target.gif","[""img/Fire_Down_Distractor.gif"",""img/Fire_Down_Distractor.gif"",""img/Fire_Down_Distractor.gif"",""img/Fire_Down_Distractor.gif"",""img/Fire_Down_Distractor.gif"",""img/Fire_Down_Distractor.gif"",""img/Fire_Down_Distractor.gif"",""img/Fire_Down_Distractor.gif"",""img/Fire_Down_Distractor.gif"",""img/Fire_Down_Distractor.gif"",""img/Fire_Down_Distractor.gif"",""img/Fire_Down_Distractor.gif""]","7","targetUp_distractorsDown"
"","","","","","html-keyboard-response","40","138951","0.0-14.0-0.0-0.13","5f983f3b00bbab0c4b28149a","619531dcf66c91622fa1b861","6195a2161d2e6fc9ed9c4f4b","null","","null","","","","","main_T1_ITI","","","","",""
"","","","","","visual-search-circle","41","140561","0.0-14.0-0.0-1.13","5f983f3b00bbab0c4b28149a","619531dcf66c91622fa1b861","6195a2161d2e6fc9ed9c4f4b","602.5999999940395","","d","true","[[567,436],[585,207],[436,32],[207,14],[32,163],[14,392],[163,567],[392,585]]","true","8","main_T2_Trial","d","img/Fire_Down_Target.gif","[""img/Fire_Up_Distractor.gif"",""img/Fire_Up_Distractor.gif"",""img/Fire_Up_Distractor.gif"",""img/Fire_Up_Distractor.gif"",""img/Fire_Up_Distractor.gif"",""img/Fire_Up_Distractor.gif"",""img/Fire_Up_Distractor.gif"",""img/Fire_Up_Distractor.gif"",""img/Fire_Up_Distractor.gif"",""img/Fire_Up_Distractor.gif"",""img/Fire_Up_Distractor.gif"",""img/Fire_Up_Distractor.gif""]","8","targetDown_distractorsUp"
"","","","","","html-keyboard-response","42","140563","0.0-14.0-0.0-0.14","5f983f3b00bbab0c4b28149a","619531dcf66c91622fa1b861","6195a2161d2e6fc9ed9c4f4b","null","","null","","","","","main_T1_ITI","","","","",""
"","","","","","visual-search-circle","43","142316","0.0-14.0-0.0-1.14","5f983f3b00bbab0c4b28149a","619531dcf66c91622fa1b861","6195a2161d2e6fc9ed9c4f4b","742.5","","d","false","[[326,1],[82,93],[2,341],[146,557],[406,580],[585,391],[549,134]]","false","7","main_T2_Trial","s","img/Fire_Down_Target.gif","[""img/Fire_Up_Distractor.gif"",""img/Fire_Up_Distractor.gif"",""img/Fire_Up_Distractor.gif"",""img/Fire_Up_Distractor.gif"",""img/Fire_Up_Distractor.gif"",""img/Fire_Up_Distractor.gif"",""img/Fire_Up_Distractor.gif"",""img/Fire_Up_Distractor.gif"",""img/Fire_Up_Distractor.gif"",""img/Fire_Up_Distractor.gif"",""img/Fire_Up_Distractor.gif"",""img/Fire_Up_Distractor.gif""]","7","targetDown_distractorsUp"
"","","","","","html-keyboard-response","44","142317","0.0-14.0-0.0-0.15","5f983f3b00bbab0c4b28149a","619531dcf66c91622fa1b861","6195a2161d2e6fc9ed9c4f4b","null","","null","","","","","main_T1_ITI","","","","",""
"","","","","","visual-search-circle","45","143883","0.0-14.0-0.0-1.15","5f983f3b00bbab0c4b28149a","619531dcf66c91622fa1b861","6195a2161d2e6fc9ed9c4f4b","556.7999999821186","","s","true","[[150,40],[3,255],[80,504],[322,599],[547,468],[586,211],[409,20]]","false","7","main_T2_Trial","s","img/Fire_Down_Target.gif","[""img/Fire_Up_Distractor.gif"",""img/Fire_Up_Distractor.gif"",""img/Fire_Up_Distractor.gif"",""img/Fire_Up_Distractor.gif"",""img/Fire_Up_Distractor.gif"",""img/Fire_Up_Distractor.gif"",""img/Fire_Up_Distractor.gif"",""img/Fire_Up_Distractor.gif"",""img/Fire_Up_Distractor.gif"",""img/Fire_Up_Distractor.gif"",""img/Fire_Up_Distractor.gif"",""img/Fire_Up_Distractor.gif""]","7","targetDown_distractorsUp"
"","","","","","html-keyboard-response","46","143885","0.0-14.0-0.0-0.16","5f983f3b00bbab0c4b28149a","619531dcf66c91622fa1b861","6195a2161d2e6fc9ed9c4f4b","null","","null","","","","","main_T1_ITI","","","","",""
"","","","","","visual-search-circle","47","145745","0.0-14.0-0.0-1.16","5f983f3b00bbab0c4b28149a","619531dcf66c91622fa1b861","6195a2161d2e6fc9ed9c4f4b","850.2999999821186","","s","true","[[237,6],[48,136],[6,362],[136,551],[362,593],[551,463],[593,237],[463,48]]","false","8","main_T2_Trial","s","img/Fire_Up_Target.gif","[""img/Fire_Down_Distractor.gif"",""img/Fire_Down_Distractor.gif"",""img/Fire_Down_Distractor.gif"",""img/Fire_Down_Distractor.gif"",""img/Fire_Down_Distractor.gif"",""img/Fire_Down_Distractor.gif"",""img/Fire_Down_Distractor.gif"",""img/Fire_Down_Distractor.gif"",""img/Fire_Down_Distractor.gif"",""img/Fire_Down_Distractor.gif"",""img/Fire_Down_Distractor.gif"",""img/Fire_Down_Distractor.gif""]","8","targetUp_distractorsDown"
"","","","","","html-keyboard-response","48","145746","0.0-14.0-0.0-0.17","5f983f3b00bbab0c4b28149a","619531dcf66c91622fa1b861","6195a2161d2e6fc9ed9c4f4b","null","","null","","","","","main_T1_ITI","","","","",""
"","","","","","visual-search-circle","49","147681","0.0-14.0-0.0-1.17","5f983f3b00bbab0c4b28149a","619531dcf66c91622fa1b861","6195a2161d2e6fc9ed9c4f4b","930.0999999940395","","s","true","[[585,392],[392,14],[14,207],[207,585]]","false","4","main_T2_Trial","s","img/Fire_Down_Target.gif","[""img/Fire_Up_Distractor.gif"",""img/Fire_Up_Distractor.gif"",""img/Fire_Up_Distractor.gif"",""img/Fire_Up_Distractor.gif"",""img/Fire_Up_Distractor.gif"",""img/Fire_Up_Distractor.gif"",""img/Fire_Up_Distractor.gif"",""img/Fire_Up_Distractor.gif"",""img/Fire_Up_Distractor.gif"",""img/Fire_Up_Distractor.gif"",""img/Fire_Up_Distractor.gif"",""img/Fire_Up_Distractor.gif""]","4","targetDown_distractorsUp"
"","","","","","html-keyboard-response","50","147683","0.0-14.0-0.0-0.18","5f983f3b00bbab0c4b28149a","619531dcf66c91622fa1b861","6195a2161d2e6fc9ed9c4f4b","null","","null","","","","","main_T1_ITI","","","","",""
"","","","","","visual-search-circle","51","149503","0.0-14.0-0.0-1.18","5f983f3b00bbab0c4b28149a","619531dcf66c91622fa1b861","6195a2161d2e6fc9ed9c4f4b","809.8000000119209","","s","true","[[564,159],[159,35],[35,440],[440,564]]","false","4","main_T2_Trial","s","img/Fire_Up_Target.gif","[""img/Fire_Down_Distractor.gif"",""img/Fire_Down_Distractor.gif"",""img/Fire_Down_Distractor.gif"",""img/Fire_Down_Distractor.gif"",""img/Fire_Down_Distractor.gif"",""img/Fire_Down_Distractor.gif"",""img/Fire_Down_Distractor.gif"",""img/Fire_Down_Distractor.gif"",""img/Fire_Down_Distractor.gif"",""img/Fire_Down_Distractor.gif"",""img/Fire_Down_Distractor.gif"",""img/Fire_Down_Distractor.gif""]","4","targetUp_distractorsDown"
"","","","","","html-keyboard-response","52","193213","0.0-14.0-0.0-0.19","5f983f3b00bbab0c4b28149a","619531dcf66c91622fa1b861","6195a2161d2e6fc9ed9c4f4b","43708","Wow! You've completed 20 out of 160 trials! </p> <p>  </p><p> Take a quick break, then press any key when you're ready to continue.","s","","","","","main_T1_ITI","","","","",""
"","","","","","visual-search-circle","53","195099","0.0-14.0-0.0-1.19","5f983f3b00bbab0c4b28149a","619531dcf66c91622fa1b861","6195a2161d2e6fc9ed9c4f4b","875.0999999940395","","d","true","[[14,392],[299,600],[585,392],[476,57],[123,57]]","true","5","main_T2_Trial","d","img/Fire_Down_Target.gif","[""img/Fire_Up_Distractor.gif"",""img/Fire_Up_Distractor.gif"",""img/Fire_Up_Distractor.gif"",""img/Fire_Up_Distractor.gif"",""img/Fire_Up_Distractor.gif"",""img/Fire_Up_Distractor.gif"",""img/Fire_Up_Distractor.gif"",""img/Fire_Up_Distractor.gif"",""img/Fire_Up_Distractor.gif"",""img/Fire_Up_Distractor.gif"",""img/Fire_Up_Distractor.gif"",""img/Fire_Up_Distractor.gif""]","5","targetDown_distractorsUp"
"","","","","","html-keyboard-response","54","195101","0.0-14.0-0.0-0.20","5f983f3b00bbab0c4b28149a","619531dcf66c91622fa1b861","6195a2161d2e6fc9ed9c4f4b","null","","null","","","","","main_T1_ITI","","","","",""
"","","","","","visual-search-circle","55","197034","0.0-14.0-0.0-1.20","5f983f3b00bbab0c4b28149a","619531dcf66c91622fa1b861","6195a2161d2e6fc9ed9c4f4b","920.5999999940395","","d","true","[[2,341],[119,539],[341,597],[539,480],[597,258],[480,60],[258,2],[60,119]]","true","8","main_T2_Trial","d","img/Fire_Up_Target.gif","[""img/Fire_Down_Distractor.gif"",""img/Fire_Down_Distractor.gif"",""img/Fire_Down_Distractor.gif"",""img/Fire_Down_Distractor.gif"",""img/Fire_Down_Distractor.gif"",""img/Fire_Down_Distractor.gif"",""img/Fire_Down_Distractor.gif"",""img/Fire_Down_Distractor.gif"",""img/Fire_Down_Distractor.gif"",""img/Fire_Down_Distractor.gif"",""img/Fire_Down_Distractor.gif"",""img/Fire_Down_Distractor.gif""]","8","targetUp_distractorsDown"
"","","","","","html-keyboard-response","56","197035","0.0-14.0-0.0-0.21","5f983f3b00bbab0c4b28149a","619531dcf66c91622fa1b861","6195a2161d2e6fc9ed9c4f4b","null","","null","","","","","main_T1_ITI","","","","",""
"","","","","","visual-search-circle","57","198637","0.0-14.0-0.0-1.21","5f983f3b00bbab0c4b28149a","619531dcf66c91622fa1b861","6195a2161d2e6fc9ed9c4f4b","594.3000000119209","","s","true","[[202,16],[16,397],[397,583],[583,202]]","false","4","main_T2_Trial","s","img/Fire_Up_Target.gif","[""img/Fire_Down_Distractor.gif"",""img/Fire_Down_Distractor.gif"",""img/Fire_Down_Distractor.gif"",""img/Fire_Down_Distractor.gif"",""img/Fire_Down_Distractor.gif"",""img/Fire_Down_Distractor.gif"",""img/Fire_Down_Distractor.gif"",""img/Fire_Down_Distractor.gif"",""img/Fire_Down_Distractor.gif"",""img/Fire_Down_Distractor.gif"",""img/Fire_Down_Distractor.gif"",""img/Fire_Down_Distractor.gif""]","4","targetUp_distractorsDown"
"","","","","","html-keyboard-response","58","198639","0.0-14.0-0.0-0.22","5f983f3b00bbab0c4b28149a","619531dcf66c91622fa1b861","6195a2161d2e6fc9ed9c4f4b","null","","null","","","","","main_T1_ITI","","","","",""
"","","","","","visual-search-circle","59","200621","0.0-14.0-0.0-1.22","5f983f3b00bbab0c4b28149a","619531dcf66c91622fa1b861","6195a2161d2e6fc9ed9c4f4b","972.5999999940395","","d","true","[[132,548],[357,594],[548,467],[594,242],[467,51],[242,5],[51,132],[5,357]]","true","8","main_T2_Trial","d","img/Fire_Up_Target.gif","[""img/Fire_Down_Distractor.gif"",""img/Fire_Down_Distractor.gif"",""img/Fire_Down_Distractor.gif"",""img/Fire_Down_Distractor.gif"",""img/Fire_Down_Distractor.gif"",""img/Fire_Down_Distractor.gif"",""img/Fire_Down_Distractor.gif"",""img/Fire_Down_Distractor.gif"",""img/Fire_Down_Distractor.gif"",""img/Fire_Down_Distractor.gif"",""img/Fire_Down_Distractor.gif"",""img/Fire_Down_Distractor.gif""]","8","targetUp_distractorsDown"
"","","","","","html-keyboard-response","60","200623","0.0-14.0-0.0-0.23","5f983f3b00bbab0c4b28149a","619531dcf66c91622fa1b861","6195a2161d2e6fc9ed9c4f4b","null","","null","","","","","main_T1_ITI","","","","",""
"","","","","","visual-search-circle","61","202185","0.0-14.0-0.0-1.23","5f983f3b00bbab0c4b28149a","619531dcf66c91622fa1b861","6195a2161d2e6fc9ed9c4f4b","553.7000000178814","","s","false","[[18,402],[310,599],[588,382],[467,51],[115,63]]","true","5","main_T2_Trial","d","img/Fire_Up_Target.gif","[""img/Fire_Down_Distractor.gif"",""img/Fire_Down_Distractor.gif"",""img/Fire_Down_Distractor.gif"",""img/Fire_Down_Distractor.gif"",""img/Fire_Down_Distractor.gif"",""img/Fire_Down_Distractor.gif"",""img/Fire_Down_Distractor.gif"",""img/Fire_Down_Distractor.gif"",""img/Fire_Down_Distractor.gif"",""img/Fire_Down_Distractor.gif"",""img/Fire_Down_Distractor.gif"",""img/Fire_Down_Distractor.gif""]","5","targetUp_distractorsDown"
"","","","","","html-keyboard-response","62","202187","0.0-14.0-0.0-0.24","5f983f3b00bbab0c4b28149a","619531dcf66c91622fa1b861","6195a2161d2e6fc9ed9c4f4b","null","","null","","","","","main_T1_ITI","","","","",""
"","","","","","visual-search-circle","63","203820","0.0-14.0-0.0-1.24","5f983f3b00bbab0c4b28149a","619531dcf66c91622fa1b861","6195a2161d2e6fc9ed9c4f4b","624.4000000059605","","s","true","[[589,377],[541,121],[311,0],[72,104],[5,355],[159,565],[419,574]]","false","7","main_T2_Trial","s","img/Fire_Up_Target.gif","[""img/Fire_Down_Distractor.gif"",""img/Fire_Down_Distractor.gif"",""img/Fire_Down_Distractor.gif"",""img/Fire_Down_Distractor.gif"",""img/Fire_Down_Distractor.gif"",""img/Fire_Down_Distractor.gif"",""img/Fire_Down_Distractor.gif"",""img/Fire_Down_Distractor.gif"",""img/Fire_Down_Distractor.gif"",""img/Fire_Down_Distractor.gif"",""img/Fire_Down_Distractor.gif"",""img/Fire_Down_Distractor.gif""]","7","targetUp_distractorsDown"
"","","","","","html-keyboard-response","64","203821","0.0-14.0-0.0-0.25","5f983f3b00bbab0c4b28149a","619531dcf66c91622fa1b861","6195a2161d2e6fc9ed9c4f4b","null","","null","","","","","main_T1_ITI","","","","",""
"","","","","","visual-search-circle","65","205372","0.0-14.0-0.0-1.25","5f983f3b00bbab0c4b28149a","619531dcf66c91622fa1b861","6195a2161d2e6fc9ed9c4f4b","540.4000000059605","","s","true","[[597,258],[412,21],[115,63],[2,341],[187,578],[484,536]]","false","6","main_T2_Trial","s","img/Fire_Up_Target.gif","[""img/Fire_Down_Distractor.gif"",""img/Fire_Down_Distractor.gif"",""img/Fire_Down_Distractor.gif"",""img/Fire_Down_Distractor.gif"",""img/Fire_Down_Distractor.gif"",""img/Fire_Down_Distractor.gif"",""img/Fire_Down_Distractor.gif"",""img/Fire_Down_Distractor.gif"",""img/Fire_Down_Distractor.gif"",""img/Fire_Down_Distractor.gif"",""img/Fire_Down_Distractor.gif"",""img/Fire_Down_Distractor.gif""]","6","targetUp_distractorsDown"
"","","","","","html-keyboard-response","66","205374","0.0-14.0-0.0-0.26","5f983f3b00bbab0c4b28149a","619531dcf66c91622fa1b861","6195a2161d2e6fc9ed9c4f4b","null","","null","","","","","main_T1_ITI","","","","",""
"","","","","","visual-search-circle","67","207042","0.0-14.0-0.0-1.26","5f983f3b00bbab0c4b28149a","619531dcf66c91622fa1b861","6195a2161d2e6fc9ed9c4f4b","661.0999999940395","","d","false","[[480,539],[597,263],[417,23],[119,60],[2,336],[182,576]]","false","6","main_T2_Trial","s","img/Fire_Up_Target.gif","[""img/Fire_Down_Distractor.gif"",""img/Fire_Down_Distractor.gif"",""img/Fire_Down_Distractor.gif"",""img/Fire_Down_Distractor.gif"",""img/Fire_Down_Distractor.gif"",""img/Fire_Down_Distractor.gif"",""img/Fire_Down_Distractor.gif"",""img/Fire_Down_Distractor.gif"",""img/Fire_Down_Distractor.gif"",""img/Fire_Down_Distractor.gif"",""img/Fire_Down_Distractor.gif"",""img/Fire_Down_Distractor.gif""]","6","targetUp_distractorsDown"
"","","","","","html-keyboard-response","68","207045","0.0-14.0-0.0-0.27","5f983f3b00bbab0c4b28149a","619531dcf66c91622fa1b861","6195a2161d2e6fc9ed9c4f4b","null","","null","","","","","main_T1_ITI","","","","",""
"","","","","","visual-search-circle","69","208663","0.0-14.0-0.0-1.27","5f983f3b00bbab0c4b28149a","619531dcf66c91622fa1b861","6195a2161d2e6fc9ed9c4f4b","608.7999999821186","","d","true","[[320,0],[79,97],[3,346],[151,560],[410,578],[587,386],[547,129]]","true","7","main_T2_Trial","d","img/Fire_Up_Target.gif","[""img/Fire_Down_Distractor.gif"",""img/Fire_Down_Distractor.gif"",""img/Fire_Down_Distractor.gif"",""img/Fire_Down_Distractor.gif"",""img/Fire_Down_Distractor.gif"",""img/Fire_Down_Distractor.gif"",""img/Fire_Down_Distractor.gif"",""img/Fire_Down_Distractor.gif"",""img/Fire_Down_Distractor.gif"",""img/Fire_Down_Distractor.gif"",""img/Fire_Down_Distractor.gif"",""img/Fire_Down_Distractor.gif""]","7","targetUp_distractorsDown"
"","","","","","html-keyboard-response","70","208667","0.0-14.0-0.0-0.28","5f983f3b00bbab0c4b28149a","619531dcf66c91622fa1b861","6195a2161d2e6fc9ed9c4f4b","null","","null","","","","","main_T1_ITI","","","","",""
"","","","","","visual-search-circle","71","210259","0.0-14.0-0.0-1.28","5f983f3b00bbab0c4b28149a","619531dcf66c91622fa1b861","6195a2161d2e6fc9ed9c4f4b","586.9000000059605","","s","false","[[95,80],[28,426],[336,597],[594,357],[445,37]]","true","5","main_T2_Trial","d","img/Fire_Up_Target.gif","[""img/Fire_Down_Distractor.gif"",""img/Fire_Down_Distractor.gif"",""img/Fire_Down_Distractor.gif"",""img/Fire_Down_Distractor.gif"",""img/Fire_Down_Distractor.gif"",""img/Fire_Down_Distractor.gif"",""img/Fire_Down_Distractor.gif"",""img/Fire_Down_Distractor.gif"",""img/Fire_Down_Distractor.gif"",""img/Fire_Down_Distractor.gif"",""img/Fire_Down_Distractor.gif"",""img/Fire_Down_Distractor.gif""]","5","targetUp_distractorsDown"
"","","","","","html-keyboard-response","72","210261","0.0-14.0-0.0-0.29","5f983f3b00bbab0c4b28149a","619531dcf66c91622fa1b861","6195a2161d2e6fc9ed9c4f4b","null","","null","","","","","main_T1_ITI","","","","",""
"","","","","","visual-search-circle","73","211971","0.0-14.0-0.0-1.29","5f983f3b00bbab0c4b28149a","619531dcf66c91622fa1b861","6195a2161d2e6fc9ed9c4f4b","700.7999999821186","","s","false","[[326,1],[107,70],[1,273],[70,492],[273,598],[492,529],[598,326],[529,107]]","true","8","main_T2_Trial","d","img/Fire_Up_Target.gif","[""img/Fire_Down_Distractor.gif"",""img/Fire_Down_Distractor.gif"",""img/Fire_Down_Distractor.gif"",""img/Fire_Down_Distractor.gif"",""img/Fire_Down_Distractor.gif"",""img/Fire_Down_Distractor.gif"",""img/Fire_Down_Distractor.gif"",""img/Fire_Down_Distractor.gif"",""img/Fire_Down_Distractor.gif"",""img/Fire_Down_Distractor.gif"",""img/Fire_Down_Distractor.gif"",""img/Fire_Down_Distractor.gif""]","8","targetUp_distractorsDown"
"","","","","","html-keyboard-response","74","211973","0.0-14.0-0.0-0.30","5f983f3b00bbab0c4b28149a","619531dcf66c91622fa1b861","6195a2161d2e6fc9ed9c4f4b","null","","null","","","","","main_T1_ITI","","","","",""
"","","","","","visual-search-circle","75","213598","0.0-14.0-0.0-1.30","5f983f3b00bbab0c4b28149a","619531dcf66c91622fa1b861","6195a2161d2e6fc9ed9c4f4b","615.9000000059605","","s","false","[[463,48],[111,66],[19,407],[315,599],[589,377]]","true","5","main_T2_Trial","d","img/Fire_Up_Target.gif","[""img/Fire_Down_Distractor.gif"",""img/Fire_Down_Distractor.gif"",""img/Fire_Down_Distractor.gif"",""img/Fire_Down_Distractor.gif"",""img/Fire_Down_Distractor.gif"",""img/Fire_Down_Distractor.gif"",""img/Fire_Down_Distractor.gif"",""img/Fire_Down_Distractor.gif"",""img/Fire_Down_Distractor.gif"",""img/Fire_Down_Distractor.gif"",""img/Fire_Down_Distractor.gif"",""img/Fire_Down_Distractor.gif""]","5","targetUp_distractorsDown"
"","","","","","html-keyboard-response","76","213600","0.0-14.0-0.0-0.31","5f983f3b00bbab0c4b28149a","619531dcf66c91622fa1b861","6195a2161d2e6fc9ed9c4f4b","null","","null","","","","","main_T1_ITI","","","","",""
"","","","","","visual-search-circle","77","215249","0.0-14.0-0.0-1.31","5f983f3b00bbab0c4b28149a","619531dcf66c91622fa1b861","6195a2161d2e6fc9ed9c4f4b","640.7000000178814","","s","true","[[168,30],[16,202],[30,431],[202,583],[431,569],[583,397],[569,168],[397,16]]","false","8","main_T2_Trial","s","img/Fire_Up_Target.gif","[""img/Fire_Down_Distractor.gif"",""img/Fire_Down_Distractor.gif"",""img/Fire_Down_Distractor.gif"",""img/Fire_Down_Distractor.gif"",""img/Fire_Down_Distractor.gif"",""img/Fire_Down_Distractor.gif"",""img/Fire_Down_Distractor.gif"",""img/Fire_Down_Distractor.gif"",""img/Fire_Down_Distractor.gif"",""img/Fire_Down_Distractor.gif"",""img/Fire_Down_Distractor.gif"",""img/Fire_Down_Distractor.gif""]","8","targetUp_distractorsDown"
"","","","","","html-keyboard-response","78","215251","0.0-14.0-0.0-0.32","5f983f3b00bbab0c4b28149a","619531dcf66c91622fa1b861","6195a2161d2e6fc9ed9c4f4b","null","","null","","","","","main_T1_ITI","","","","",""
"","","","","","visual-search-circle","79","216929","0.0-14.0-0.0-1.32","5f983f3b00bbab0c4b28149a","619531dcf66c91622fa1b861","6195a2161d2e6fc9ed9c4f4b","669.4000000059605","","s","true","[[119,60],[16,397],[305,599],[586,387],[472,54]]","false","5","main_T2_Trial","s","img/Fire_Up_Target.gif","[""img/Fire_Down_Distractor.gif"",""img/Fire_Down_Distractor.gif"",""img/Fire_Down_Distractor.gif"",""img/Fire_Down_Distractor.gif"",""img/Fire_Down_Distractor.gif"",""img/Fire_Down_Distractor.gif"",""img/Fire_Down_Distractor.gif"",""img/Fire_Down_Distractor.gif"",""img/Fire_Down_Distractor.gif"",""img/Fire_Down_Distractor.gif"",""img/Fire_Down_Distractor.gif"",""img/Fire_Down_Distractor.gif""]","5","targetUp_distractorsDown"
"","","","","","html-keyboard-response","80","216931","0.0-14.0-0.0-0.33","5f983f3b00bbab0c4b28149a","619531dcf66c91622fa1b861","6195a2161d2e6fc9ed9c4f4b","null","","null","","","","","main_T1_ITI","","","","",""
"","","","","","visual-search-circle","81","218553","0.0-14.0-0.0-1.33","5f983f3b00bbab0c4b28149a","619531dcf66c91622fa1b861","6195a2161d2e6fc9ed9c4f4b","613.9000000059605","","s","true","[[197,18],[4,247],[107,529],[402,581],[595,352],[492,70]]","false","6","main_T2_Trial","s","img/Fire_Up_Target.gif","[""img/Fire_Down_Distractor.gif"",""img/Fire_Down_Distractor.gif"",""img/Fire_Down_Distractor.gif"",""img/Fire_Down_Distractor.gif"",""img/Fire_Down_Distractor.gif"",""img/Fire_Down_Distractor.gif"",""img/Fire_Down_Distractor.gif"",""img/Fire_Down_Distractor.gif"",""img/Fire_Down_Distractor.gif"",""img/Fire_Down_Distractor.gif"",""img/Fire_Down_Distractor.gif"",""img/Fire_Down_Distractor.gif""]","6","targetUp_distractorsDown"
"","","","","","html-keyboard-response","82","218555","0.0-14.0-0.0-0.34","5f983f3b00bbab0c4b28149a","619531dcf66c91622fa1b861","6195a2161d2e6fc9ed9c4f4b","null","","null","","","","","main_T1_ITI","","","","",""
"","","","","","visual-search-circle","83","220589","0.0-14.0-0.0-1.34","5f983f3b00bbab0c4b28149a","619531dcf66c91622fa1b861","6195a2161d2e6fc9ed9c4f4b","1023.1999999880791","","d","true","[[0,279],[97,520],[346,596],[560,448],[578,189],[386,12],[129,52]]","true","7","main_T2_Trial","d","img/Fire_Down_Target.gif","[""img/Fire_Up_Distractor.gif"",""img/Fire_Up_Distractor.gif"",""img/Fire_Up_Distractor.gif"",""img/Fire_Up_Distractor.gif"",""img/Fire_Up_Distractor.gif"",""img/Fire_Up_Distractor.gif"",""img/Fire_Up_Distractor.gif"",""img/Fire_Up_Distractor.gif"",""img/Fire_Up_Distractor.gif"",""img/Fire_Up_Distractor.gif"",""img/Fire_Up_Distractor.gif"",""img/Fire_Up_Distractor.gif""]","7","targetDown_distractorsUp"
"","","","","","html-keyboard-response","84","220591","0.0-14.0-0.0-0.35","5f983f3b00bbab0c4b28149a","619531dcf66c91622fa1b861","6195a2161d2e6fc9ed9c4f4b","null","","null","","","","","main_T1_ITI","","","","",""
"","","","","","visual-search-circle","85","222304","0.0-14.0-0.0-1.35","5f983f3b00bbab0c4b28149a","619531dcf66c91622fa1b861","6195a2161d2e6fc9ed9c4f4b","705.1999999880791","","s","true","[[387,586],[592,367],[504,80],[212,13],[7,232],[95,519]]","false","6","main_T2_Trial","s","img/Fire_Up_Target.gif","[""img/Fire_Down_Distractor.gif"",""img/Fire_Down_Distractor.gif"",""img/Fire_Down_Distractor.gif"",""img/Fire_Down_Distractor.gif"",""img/Fire_Down_Distractor.gif"",""img/Fire_Down_Distractor.gif"",""img/Fire_Down_Distractor.gif"",""img/Fire_Down_Distractor.gif"",""img/Fire_Down_Distractor.gif"",""img/Fire_Down_Distractor.gif"",""img/Fire_Down_Distractor.gif"",""img/Fire_Down_Distractor.gif""]","6","targetUp_distractorsDown"
"","","","","","html-keyboard-response","86","222306","0.0-14.0-0.0-0.36","5f983f3b00bbab0c4b28149a","619531dcf66c91622fa1b861","6195a2161d2e6fc9ed9c4f4b","null","","null","","","","","main_T1_ITI","","","","",""
"","","","","","visual-search-circle","87","224033","0.0-14.0-0.0-1.36","5f983f3b00bbab0c4b28149a","619531dcf66c91622fa1b861","6195a2161d2e6fc9ed9c4f4b","716.5999999940395","","d","true","[[598,331],[533,111],[331,1],[111,66],[1,268],[66,488],[268,598],[488,533]]","true","8","main_T2_Trial","d","img/Fire_Up_Target.gif","[""img/Fire_Down_Distractor.gif"",""img/Fire_Down_Distractor.gif"",""img/Fire_Down_Distractor.gif"",""img/Fire_Down_Distractor.gif"",""img/Fire_Down_Distractor.gif"",""img/Fire_Down_Distractor.gif"",""img/Fire_Down_Distractor.gif"",""img/Fire_Down_Distractor.gif"",""img/Fire_Down_Distractor.gif"",""img/Fire_Down_Distractor.gif"",""img/Fire_Down_Distractor.gif"",""img/Fire_Down_Distractor.gif""]","8","targetUp_distractorsDown"
"","","","","","html-keyboard-response","88","224035","0.0-14.0-0.0-0.37","5f983f3b00bbab0c4b28149a","619531dcf66c91622fa1b861","6195a2161d2e6fc9ed9c4f4b","null","","null","","","","","main_T1_ITI","","","","",""
"","","","","","visual-search-circle","89","225859","0.0-14.0-0.0-1.37","5f983f3b00bbab0c4b28149a","619531dcf66c91622fa1b861","6195a2161d2e6fc9ed9c4f4b","813.2000000178814","","d","true","[[54,472],[281,599],[522,501],[596,251],[446,38],[186,22],[12,215]]","true","7","main_T2_Trial","d","img/Fire_Up_Target.gif","[""img/Fire_Down_Distractor.gif"",""img/Fire_Down_Distractor.gif"",""img/Fire_Down_Distractor.gif"",""img/Fire_Down_Distractor.gif"",""img/Fire_Down_Distractor.gif"",""img/Fire_Down_Distractor.gif"",""img/Fire_Down_Distractor.gif"",""img/Fire_Down_Distractor.gif"",""img/Fire_Down_Distractor.gif"",""img/Fire_Down_Distractor.gif"",""img/Fire_Down_Distractor.gif"",""img/Fire_Down_Distractor.gif""]","7","targetUp_distractorsDown"
"","","","","","html-keyboard-response","90","225860","0.0-14.0-0.0-0.38","5f983f3b00bbab0c4b28149a","619531dcf66c91622fa1b861","6195a2161d2e6fc9ed9c4f4b","null","","null","","","","","main_T1_ITI","","","","",""
"","","","","","visual-search-circle","91","227469","0.0-14.0-0.0-1.38","5f983f3b00bbab0c4b28149a","619531dcf66c91622fa1b861","6195a2161d2e6fc9ed9c4f4b","601.6000000238419","","s","false","[[533,111],[253,3],[19,192],[66,488],[346,596],[580,407]]","true","6","main_T2_Trial","d","img/Fire_Down_Target.gif","[""img/Fire_Up_Distractor.gif"",""img/Fire_Up_Distractor.gif"",""img/Fire_Up_Distractor.gif"",""img/Fire_Up_Distractor.gif"",""img/Fire_Up_Distractor.gif"",""img/Fire_Up_Distractor.gif"",""img/Fire_Up_Distractor.gif"",""img/Fire_Up_Distractor.gif"",""img/Fire_Up_Distractor.gif"",""img/Fire_Up_Distractor.gif"",""img/Fire_Up_Distractor.gif"",""img/Fire_Up_Distractor.gif""]","6","targetDown_distractorsUp"
"","","","","","html-keyboard-response","92","237112","0.0-14.0-0.0-0.39","5f983f3b00bbab0c4b28149a","619531dcf66c91622fa1b861","6195a2161d2e6fc9ed9c4f4b","9641.800000011921","Wow! You've completed 40 out of 160 trials! </p> <p>  </p><p> Take a quick break, then press any key when you're ready to continue.","s","","","","","main_T1_ITI","","","","",""
"","","","","","visual-search-circle","93","239096","0.0-14.0-0.0-1.39","5f983f3b00bbab0c4b28149a","619531dcf66c91622fa1b861","6195a2161d2e6fc9ed9c4f4b","978.8000000119209","","d","true","[[173,571],[519,504],[562,154],[242,5],[2,263]]","true","5","main_T2_Trial","d","img/Fire_Down_Target.gif","[""img/Fire_Up_Distractor.gif"",""img/Fire_Up_Distractor.gif"",""img/Fire_Up_Distractor.gif"",""img/Fire_Up_Distractor.gif"",""img/Fire_Up_Distractor.gif"",""img/Fire_Up_Distractor.gif"",""img/Fire_Up_Distractor.gif"",""img/Fire_Up_Distractor.gif"",""img/Fire_Up_Distractor.gif"",""img/Fire_Up_Distractor.gif"",""img/Fire_Up_Distractor.gif"",""img/Fire_Up_Distractor.gif""]","5","targetDown_distractorsUp"
"","","","","","html-keyboard-response","94","239097","0.0-14.0-0.0-0.40","5f983f3b00bbab0c4b28149a","619531dcf66c91622fa1b861","6195a2161d2e6fc9ed9c4f4b","null","","null","","","","","main_T1_ITI","","","","",""
"","","","","","visual-search-circle","95","240884","0.0-14.0-0.0-1.40","5f983f3b00bbab0c4b28149a","619531dcf66c91622fa1b861","6195a2161d2e6fc9ed9c4f4b","775.0999999940395","","d","true","[[80,95],[3,343],[149,559],[408,579],[586,389],[548,131],[323,0]]","true","7","main_T2_Trial","d","img/Fire_Down_Target.gif","[""img/Fire_Up_Distractor.gif"",""img/Fire_Up_Distractor.gif"",""img/Fire_Up_Distractor.gif"",""img/Fire_Up_Distractor.gif"",""img/Fire_Up_Distractor.gif"",""img/Fire_Up_Distractor.gif"",""img/Fire_Up_Distractor.gif"",""img/Fire_Up_Distractor.gif"",""img/Fire_Up_Distractor.gif"",""img/Fire_Up_Distractor.gif"",""img/Fire_Up_Distractor.gif"",""img/Fire_Up_Distractor.gif""]","7","targetDown_distractorsUp"
"","","","","","html-keyboard-response","96","240886","0.0-14.0-0.0-0.41","5f983f3b00bbab0c4b28149a","619531dcf66c91622fa1b861","6195a2161d2e6fc9ed9c4f4b","null","","null","","","","","main_T1_ITI","","","","",""
"","","","","","visual-search-circle","97","242720","0.0-14.0-0.0-1.41","5f983f3b00bbab0c4b28149a","619531dcf66c91622fa1b861","6195a2161d2e6fc9ed9c4f4b","826.9000000059605","","s","true","[[145,42],[8,227],[42,454],[227,591],[454,557],[591,372],[557,145],[372,8]]","false","8","main_T2_Trial","s","img/Fire_Up_Target.gif","[""img/Fire_Down_Distractor.gif"",""img/Fire_Down_Distractor.gif"",""img/Fire_Down_Distractor.gif"",""img/Fire_Down_Distractor.gif"",""img/Fire_Down_Distractor.gif"",""img/Fire_Down_Distractor.gif"",""img/Fire_Down_Distractor.gif"",""img/Fire_Down_Distractor.gif"",""img/Fire_Down_Distractor.gif"",""img/Fire_Down_Distractor.gif"",""img/Fire_Down_Distractor.gif"",""img/Fire_Down_Distractor.gif""]","8","targetUp_distractorsDown"
"","","","","","html-keyboard-response","98","242721","0.0-14.0-0.0-0.42","5f983f3b00bbab0c4b28149a","619531dcf66c91622fa1b861","6195a2161d2e6fc9ed9c4f4b","null","","null","","","","","main_T1_ITI","","","","",""
"","","","","","visual-search-circle","99","244472","0.0-14.0-0.0-1.42","5f983f3b00bbab0c4b28149a","619531dcf66c91622fa1b861","6195a2161d2e6fc9ed9c4f4b","739.8999999761581","","d","true","[[192,580],[451,558],[596,342],[518,94],[275,1],[50,132],[13,390]]","true","7","main_T2_Trial","d","img/Fire_Down_Target.gif","[""img/Fire_Up_Distractor.gif"",""img/Fire_Up_Distractor.gif"",""img/Fire_Up_Distractor.gif"",""img/Fire_Up_Distractor.gif"",""img/Fire_Up_Distractor.gif"",""img/Fire_Up_Distractor.gif"",""img/Fire_Up_Distractor.gif"",""img/Fire_Up_Distractor.gif"",""img/Fire_Up_Distractor.gif"",""img/Fire_Up_Distractor.gif"",""img/Fire_Up_Distractor.gif"",""img/Fire_Up_Distractor.gif""]","7","targetDown_distractorsUp"
"","","","","","html-keyboard-response","100","244474","0.0-14.0-0.0-0.43","5f983f3b00bbab0c4b28149a","619531dcf66c91622fa1b861","6195a2161d2e6fc9ed9c4f4b","null","","null","","","","","main_T1_ITI","","","","",""
"","","","","","visual-search-circle","101","246205","0.0-14.0-0.0-1.43","5f983f3b00bbab0c4b28149a","619531dcf66c91622fa1b861","6195a2161d2e6fc9ed9c4f4b","721.5","","s","true","[[263,2],[2,336],[336,597],[597,263]]","false","4","main_T2_Trial","s","img/Fire_Up_Target.gif","[""img/Fire_Down_Distractor.gif"",""img/Fire_Down_Distractor.gif"",""img/Fire_Down_Distractor.gif"",""img/Fire_Down_Distractor.gif"",""img/Fire_Down_Distractor.gif"",""img/Fire_Down_Distractor.gif"",""img/Fire_Down_Distractor.gif"",""img/Fire_Down_Distractor.gif"",""img/Fire_Down_Distractor.gif"",""img/Fire_Down_Distractor.gif"",""img/Fire_Down_Distractor.gif"",""img/Fire_Down_Distractor.gif""]","4","targetUp_distractorsDown"
"","","","","","html-keyboard-response","102","246207","0.0-14.0-0.0-0.44","5f983f3b00bbab0c4b28149a","619531dcf66c91622fa1b861","6195a2161d2e6fc9ed9c4f4b","null","","null","","","","","main_T1_ITI","","","","",""
"","","","","","visual-search-circle","103","248495","0.0-14.0-0.0-1.44","5f983f3b00bbab0c4b28149a","619531dcf66c91622fa1b861","6195a2161d2e6fc9ed9c4f4b","1279.800000011921","","d","true","[[564,159],[159,35],[35,440],[440,564]]","true","4","main_T2_Trial","d","img/Fire_Down_Target.gif","[""img/Fire_Up_Distractor.gif"",""img/Fire_Up_Distractor.gif"",""img/Fire_Up_Distractor.gif"",""img/Fire_Up_Distractor.gif"",""img/Fire_Up_Distractor.gif"",""img/Fire_Up_Distractor.gif"",""img/Fire_Up_Distractor.gif"",""img/Fire_Up_Distractor.gif"",""img/Fire_Up_Distractor.gif"",""img/Fire_Up_Distractor.gif"",""img/Fire_Up_Distractor.gif"",""img/Fire_Up_Distractor.gif""]","4","targetDown_distractorsUp"
"","","","","","html-keyboard-response","104","248497","0.0-14.0-0.0-0.45","5f983f3b00bbab0c4b28149a","619531dcf66c91622fa1b861","6195a2161d2e6fc9ed9c4f4b","null","","null","","","","","main_T1_ITI","","","","",""
"","","","","","visual-search-circle","105","250287","0.0-14.0-0.0-1.45","5f983f3b00bbab0c4b28149a","619531dcf66c91622fa1b861","6195a2161d2e6fc9ed9c4f4b","783.5999999940395","","s","true","[[7,232],[95,519],[387,586],[592,367],[504,80],[212,13]]","false","6","main_T2_Trial","s","img/Fire_Down_Target.gif","[""img/Fire_Up_Distractor.gif"",""img/Fire_Up_Distractor.gif"",""img/Fire_Up_Distractor.gif"",""img/Fire_Up_Distractor.gif"",""img/Fire_Up_Distractor.gif"",""img/Fire_Up_Distractor.gif"",""img/Fire_Up_Distractor.gif"",""img/Fire_Up_Distractor.gif"",""img/Fire_Up_Distractor.gif"",""img/Fire_Up_Distractor.gif"",""img/Fire_Up_Distractor.gif"",""img/Fire_Up_Distractor.gif""]","6","targetDown_distractorsUp"
"","","","","","html-keyboard-response","106","250289","0.0-14.0-0.0-0.46","5f983f3b00bbab0c4b28149a","619531dcf66c91622fa1b861","6195a2161d2e6fc9ed9c4f4b","null","","null","","","","","main_T1_ITI","","","","",""
"","","","","","visual-search-circle","107","252282","0.0-14.0-0.0-1.46","5f983f3b00bbab0c4b28149a","619531dcf66c91622fa1b861","6195a2161d2e6fc9ed9c4f4b","987.9000000059605","","s","true","[[77,99],[99,522],[522,500],[500,77]]","false","4","main_T2_Trial","s","img/Fire_Down_Target.gif","[""img/Fire_Up_Distractor.gif"",""img/Fire_Up_Distractor.gif"",""img/Fire_Up_Distractor.gif"",""img/Fire_Up_Distractor.gif"",""img/Fire_Up_Distractor.gif"",""img/Fire_Up_Distractor.gif"",""img/Fire_Up_Distractor.gif"",""img/Fire_Up_Distractor.gif"",""img/Fire_Up_Distractor.gif"",""img/Fire_Up_Distractor.gif"",""img/Fire_Up_Distractor.gif"",""img/Fire_Up_Distractor.gif""]","4","targetDown_distractorsUp"
"","","","","","html-keyboard-response","108","252283","0.0-14.0-0.0-0.47","5f983f3b00bbab0c4b28149a","619531dcf66c91622fa1b861","6195a2161d2e6fc9ed9c4f4b","null","","null","","","","","main_T1_ITI","","","","",""
"","","","","","visual-search-circle","109","254282","0.0-14.0-0.0-1.47","5f983f3b00bbab0c4b28149a","619531dcf66c91622fa1b861","6195a2161d2e6fc9ed9c4f4b","992.2999999821186","","s","true","[[458,554],[599,289],[440,35],[141,45],[0,310],[159,564]]","false","6","main_T2_Trial","s","img/Fire_Down_Target.gif","[""img/Fire_Up_Distractor.gif"",""img/Fire_Up_Distractor.gif"",""img/Fire_Up_Distractor.gif"",""img/Fire_Up_Distractor.gif"",""img/Fire_Up_Distractor.gif"",""img/Fire_Up_Distractor.gif"",""img/Fire_Up_Distractor.gif"",""img/Fire_Up_Distractor.gif"",""img/Fire_Up_Distractor.gif"",""img/Fire_Up_Distractor.gif"",""img/Fire_Up_Distractor.gif"",""img/Fire_Up_Distractor.gif""]","6","targetDown_distractorsUp"
"","","","","","html-keyboard-response","110","254284","0.0-14.0-0.0-0.48","5f983f3b00bbab0c4b28149a","619531dcf66c91622fa1b861","6195a2161d2e6fc9ed9c4f4b","null","","null","","","","","main_T1_ITI","","","","",""
"","","","","","visual-search-circle","111","255982","0.0-14.0-0.0-1.48","5f983f3b00bbab0c4b28149a","619531dcf66c91622fa1b861","6195a2161d2e6fc9ed9c4f4b","692.4000000059605","","s","true","[[30,431],[431,569],[569,168],[168,30]]","false","4","main_T2_Trial","s","img/Fire_Down_Target.gif","[""img/Fire_Up_Distractor.gif"",""img/Fire_Up_Distractor.gif"",""img/Fire_Up_Distractor.gif"",""img/Fire_Up_Distractor.gif"",""img/Fire_Up_Distractor.gif"",""img/Fire_Up_Distractor.gif"",""img/Fire_Up_Distractor.gif"",""img/Fire_Up_Distractor.gif"",""img/Fire_Up_Distractor.gif"",""img/Fire_Up_Distractor.gif"",""img/Fire_Up_Distractor.gif"",""img/Fire_Up_Distractor.gif""]","4","targetDown_distractorsUp"
"","","","","","html-keyboard-response","112","255984","0.0-14.0-0.0-0.49","5f983f3b00bbab0c4b28149a","619531dcf66c91622fa1b861","6195a2161d2e6fc9ed9c4f4b","null","","null","","","","","main_T1_ITI","","","","",""
"","","","","","visual-search-circle","113","257715","0.0-14.0-0.0-1.49","5f983f3b00bbab0c4b28149a","619531dcf66c91622fa1b861","6195a2161d2e6fc9ed9c4f4b","725","","d","true","[[578,412],[536,115],[258,2],[21,187],[63,484],[341,597]]","true","6","main_T2_Trial","d","img/Fire_Down_Target.gif","[""img/Fire_Up_Distractor.gif"",""img/Fire_Up_Distractor.gif"",""img/Fire_Up_Distractor.gif"",""img/Fire_Up_Distractor.gif"",""img/Fire_Up_Distractor.gif"",""img/Fire_Up_Distractor.gif"",""img/Fire_Up_Distractor.gif"",""img/Fire_Up_Distractor.gif"",""img/Fire_Up_Distractor.gif"",""img/Fire_Up_Distractor.gif"",""img/Fire_Up_Distractor.gif"",""img/Fire_Up_Distractor.gif""]","6","targetDown_distractorsUp"
"","","","","","html-keyboard-response","114","257717","0.0-14.0-0.0-0.50","5f983f3b00bbab0c4b28149a","619531dcf66c91622fa1b861","6195a2161d2e6fc9ed9c4f4b","null","","null","","","","","main_T1_ITI","","","","",""
"","","","","","visual-search-circle","115","259652","0.0-14.0-0.0-1.50","5f983f3b00bbab0c4b28149a","619531dcf66c91622fa1b861","6195a2161d2e6fc9ed9c4f4b","927.3999999761581","","s","false","[[7,232],[232,592],[592,367],[367,7]]","true","4","main_T2_Trial","d","img/Fire_Up_Target.gif","[""img/Fire_Down_Distractor.gif"",""img/Fire_Down_Distractor.gif"",""img/Fire_Down_Distractor.gif"",""img/Fire_Down_Distractor.gif"",""img/Fire_Down_Distractor.gif"",""img/Fire_Down_Distractor.gif"",""img/Fire_Down_Distractor.gif"",""img/Fire_Down_Distractor.gif"",""img/Fire_Down_Distractor.gif"",""img/Fire_Down_Distractor.gif"",""img/Fire_Down_Distractor.gif"",""img/Fire_Down_Distractor.gif""]","4","targetUp_distractorsDown"
"","","","","","html-keyboard-response","116","259654","0.0-14.0-0.0-0.51","5f983f3b00bbab0c4b28149a","619531dcf66c91622fa1b861","6195a2161d2e6fc9ed9c4f4b","null","","null","","","","","main_T1_ITI","","","","",""
"","","","","","visual-search-circle","117","261534","0.0-14.0-0.0-1.51","5f983f3b00bbab0c4b28149a","619531dcf66c91622fa1b861","6195a2161d2e6fc9ed9c4f4b","875.8000000119209","","s","false","[[580,192],[192,19],[19,407],[407,580]]","true","4","main_T2_Trial","d","img/Fire_Up_Target.gif","[""img/Fire_Down_Distractor.gif"",""img/Fire_Down_Distractor.gif"",""img/Fire_Down_Distractor.gif"",""img/Fire_Down_Distractor.gif"",""img/Fire_Down_Distractor.gif"",""img/Fire_Down_Distractor.gif"",""img/Fire_Down_Distractor.gif"",""img/Fire_Down_Distractor.gif"",""img/Fire_Down_Distractor.gif"",""img/Fire_Down_Distractor.gif"",""img/Fire_Down_Distractor.gif"",""img/Fire_Down_Distractor.gif""]","4","targetUp_distractorsDown"
"","","","","","html-keyboard-response","118","261535","0.0-14.0-0.0-0.52","5f983f3b00bbab0c4b28149a","619531dcf66c91622fa1b861","6195a2161d2e6fc9ed9c4f4b","null","","null","","","","","main_T1_ITI","","","","",""
"","","","","","visual-search-circle","119","263454","0.0-14.0-0.0-1.52","5f983f3b00bbab0c4b28149a","619531dcf66c91622fa1b861","6195a2161d2e6fc9ed9c4f4b","908.0999999940395","","s","true","[[19,192],[66,488],[346,596],[580,407],[533,111],[253,3]]","false","6","main_T2_Trial","s","img/Fire_Down_Target.gif","[""img/Fire_Up_Distractor.gif"",""img/Fire_Up_Distractor.gif"",""img/Fire_Up_Distractor.gif"",""img/Fire_Up_Distractor.gif"",""img/Fire_Up_Distractor.gif"",""img/Fire_Up_Distractor.gif"",""img/Fire_Up_Distractor.gif"",""img/Fire_Up_Distractor.gif"",""img/Fire_Up_Distractor.gif"",""img/Fire_Up_Distractor.gif"",""img/Fire_Up_Distractor.gif"",""img/Fire_Up_Distractor.gif""]","6","targetDown_distractorsUp"
"","","","","","html-keyboard-response","120","263457","0.0-14.0-0.0-0.53","5f983f3b00bbab0c4b28149a","619531dcf66c91622fa1b861","6195a2161d2e6fc9ed9c4f4b","null","","null","","","","","main_T1_ITI","","","","",""
"","","","","","visual-search-circle","121","265042","0.0-14.0-0.0-1.53","5f983f3b00bbab0c4b28149a","619531dcf66c91622fa1b861","6195a2161d2e6fc9ed9c4f4b","575.7999999821186","","s","true","[[177,25],[19,192],[25,422],[192,580],[422,574],[580,407],[574,177],[407,19]]","false","8","main_T2_Trial","s","img/Fire_Down_Target.gif","[""img/Fire_Up_Distractor.gif"",""img/Fire_Up_Distractor.gif"",""img/Fire_Up_Distractor.gif"",""img/Fire_Up_Distractor.gif"",""img/Fire_Up_Distractor.gif"",""img/Fire_Up_Distractor.gif"",""img/Fire_Up_Distractor.gif"",""img/Fire_Up_Distractor.gif"",""img/Fire_Up_Distractor.gif"",""img/Fire_Up_Distractor.gif"",""img/Fire_Up_Distractor.gif"",""img/Fire_Up_Distractor.gif""]","8","targetDown_distractorsUp"
"","","","","","html-keyboard-response","122","265044","0.0-14.0-0.0-0.54","5f983f3b00bbab0c4b28149a","619531dcf66c91622fa1b861","6195a2161d2e6fc9ed9c4f4b","null","","null","","","","","main_T1_ITI","","","","",""
"","","","","","visual-search-circle","123","266800","0.0-14.0-0.0-1.54","5f983f3b00bbab0c4b28149a","619531dcf66c91622fa1b861","6195a2161d2e6fc9ed9c4f4b","749.2999999821186","","s","true","[[346,3],[66,111],[19,407],[253,596],[533,488],[580,192]]","false","6","main_T2_Trial","s","img/Fire_Up_Target.gif","[""img/Fire_Down_Distractor.gif"",""img/Fire_Down_Distractor.gif"",""img/Fire_Down_Distractor.gif"",""img/Fire_Down_Distractor.gif"",""img/Fire_Down_Distractor.gif"",""img/Fire_Down_Distractor.gif"",""img/Fire_Down_Distractor.gif"",""img/Fire_Down_Distractor.gif"",""img/Fire_Down_Distractor.gif"",""img/Fire_Down_Distractor.gif"",""img/Fire_Down_Distractor.gif"",""img/Fire_Down_Distractor.gif""]","6","targetUp_distractorsDown"
"","","","","","html-keyboard-response","124","266801","0.0-14.0-0.0-0.55","5f983f3b00bbab0c4b28149a","619531dcf66c91622fa1b861","6195a2161d2e6fc9ed9c4f4b","null","","null","","","","","main_T1_ITI","","","","",""
"","","","","","visual-search-circle","125","268534","0.0-14.0-0.0-1.55","5f983f3b00bbab0c4b28149a","619531dcf66c91622fa1b861","6195a2161d2e6fc9ed9c4f4b","726.8000000119209","","s","true","[[168,569],[515,508],[564,159],[247,4],[2,258]]","false","5","main_T2_Trial","s","img/Fire_Down_Target.gif","[""img/Fire_Up_Distractor.gif"",""img/Fire_Up_Distractor.gif"",""img/Fire_Up_Distractor.gif"",""img/Fire_Up_Distractor.gif"",""img/Fire_Up_Distractor.gif"",""img/Fire_Up_Distractor.gif"",""img/Fire_Up_Distractor.gif"",""img/Fire_Up_Distractor.gif"",""img/Fire_Up_Distractor.gif"",""img/Fire_Up_Distractor.gif"",""img/Fire_Up_Distractor.gif"",""img/Fire_Up_Distractor.gif""]","5","targetDown_distractorsUp"
"","","","","","html-keyboard-response","126","268537","0.0-14.0-0.0-0.56","5f983f3b00bbab0c4b28149a","619531dcf66c91622fa1b861","6195a2161d2e6fc9ed9c4f4b","null","","null","","","","","main_T1_ITI","","","","",""
"","","","","","visual-search-circle","127","270384","0.0-14.0-0.0-1.56","5f983f3b00bbab0c4b28149a","619531dcf66c91622fa1b861","6195a2161d2e6fc9ed9c4f4b","841.4000000059605","","s","true","[[597,341],[431,30],[84,91],[35,440],[352,595]]","false","5","main_T2_Trial","s","img/Fire_Down_Target.gif","[""img/Fire_Up_Distractor.gif"",""img/Fire_Up_Distractor.gif"",""img/Fire_Up_Distractor.gif"",""img/Fire_Up_Distractor.gif"",""img/Fire_Up_Distractor.gif"",""img/Fire_Up_Distractor.gif"",""img/Fire_Up_Distractor.gif"",""img/Fire_Up_Distractor.gif"",""img/Fire_Up_Distractor.gif"",""img/Fire_Up_Distractor.gif"",""img/Fire_Up_Distractor.gif"",""img/Fire_Up_Distractor.gif""]","5","targetDown_distractorsUp"
"","","","","","html-keyboard-response","128","270386","0.0-14.0-0.0-0.57","5f983f3b00bbab0c4b28149a","619531dcf66c91622fa1b861","6195a2161d2e6fc9ed9c4f4b","null","","null","","","","","main_T1_ITI","","","","",""
"","","","","","visual-search-circle","129","272196","0.0-14.0-0.0-1.57","5f983f3b00bbab0c4b28149a","619531dcf66c91622fa1b861","6195a2161d2e6fc9ed9c4f4b","802.1999999880791","","d","true","[[594,357],[548,132],[357,5],[132,51],[5,242],[51,467],[242,594],[467,548]]","true","8","main_T2_Trial","d","img/Fire_Down_Target.gif","[""img/Fire_Up_Distractor.gif"",""img/Fire_Up_Distractor.gif"",""img/Fire_Up_Distractor.gif"",""img/Fire_Up_Distractor.gif"",""img/Fire_Up_Distractor.gif"",""img/Fire_Up_Distractor.gif"",""img/Fire_Up_Distractor.gif"",""img/Fire_Up_Distractor.gif"",""img/Fire_Up_Distractor.gif"",""img/Fire_Up_Distractor.gif"",""img/Fire_Up_Distractor.gif"",""img/Fire_Up_Distractor.gif""]","8","targetDown_distractorsUp"
"","","","","","html-keyboard-response","130","272198","0.0-14.0-0.0-0.58","5f983f3b00bbab0c4b28149a","619531dcf66c91622fa1b861","6195a2161d2e6fc9ed9c4f4b","null","","null","","","","","main_T1_ITI","","","","",""
"","","","","","visual-search-circle","131","273993","0.0-14.0-0.0-1.58","5f983f3b00bbab0c4b28149a","619531dcf66c91622fa1b861","6195a2161d2e6fc9ed9c4f4b","785.3000000119209","","d","false","[[14,392],[163,567],[392,585],[567,436],[585,207],[436,32],[207,14],[32,163]]","false","8","main_T2_Trial","s","img/Fire_Down_Target.gif","[""img/Fire_Up_Distractor.gif"",""img/Fire_Up_Distractor.gif"",""img/Fire_Up_Distractor.gif"",""img/Fire_Up_Distractor.gif"",""img/Fire_Up_Distractor.gif"",""img/Fire_Up_Distractor.gif"",""img/Fire_Up_Distractor.gif"",""img/Fire_Up_Distractor.gif"",""img/Fire_Up_Distractor.gif"",""img/Fire_Up_Distractor.gif"",""img/Fire_Up_Distractor.gif"",""img/Fire_Up_Distractor.gif""]","8","targetDown_distractorsUp"
"","","","","","html-keyboard-response","132","283069","0.0-14.0-0.0-0.59","5f983f3b00bbab0c4b28149a","619531dcf66c91622fa1b861","6195a2161d2e6fc9ed9c4f4b","9078.300000011921","Wow! You've completed 60 out of 160 trials! </p> <p>  </p><p> Take a quick break, then press any key when you're ready to continue.","s","","","","","main_T1_ITI","","","","",""
"","","","","","visual-search-circle","133","285023","0.0-14.0-0.0-1.59","5f983f3b00bbab0c4b28149a","619531dcf66c91622fa1b861","6195a2161d2e6fc9ed9c4f4b","945.7000000178814","","s","true","[[11,382],[382,588],[588,217],[217,11]]","false","4","main_T2_Trial","s","img/Fire_Up_Target.gif","[""img/Fire_Down_Distractor.gif"",""img/Fire_Down_Distractor.gif"",""img/Fire_Down_Distractor.gif"",""img/Fire_Down_Distractor.gif"",""img/Fire_Down_Distractor.gif"",""img/Fire_Down_Distractor.gif"",""img/Fire_Down_Distractor.gif"",""img/Fire_Down_Distractor.gif"",""img/Fire_Down_Distractor.gif"",""img/Fire_Down_Distractor.gif"",""img/Fire_Down_Distractor.gif"",""img/Fire_Down_Distractor.gif""]","4","targetUp_distractorsDown"
"","","","","","html-keyboard-response","134","285025","0.0-14.0-0.0-0.60","5f983f3b00bbab0c4b28149a","619531dcf66c91622fa1b861","6195a2161d2e6fc9ed9c4f4b","null","","null","","","","","main_T1_ITI","","","","",""
"","","","","","visual-search-circle","135","286986","0.0-14.0-0.0-1.60","5f983f3b00bbab0c4b28149a","619531dcf66c91622fa1b861","6195a2161d2e6fc9ed9c4f4b","956","","s","true","[[551,463],[567,163],[315,0],[48,136],[32,436],[284,599]]","false","6","main_T2_Trial","s","img/Fire_Down_Target.gif","[""img/Fire_Up_Distractor.gif"",""img/Fire_Up_Distractor.gif"",""img/Fire_Up_Distractor.gif"",""img/Fire_Up_Distractor.gif"",""img/Fire_Up_Distractor.gif"",""img/Fire_Up_Distractor.gif"",""img/Fire_Up_Distractor.gif"",""img/Fire_Up_Distractor.gif"",""img/Fire_Up_Distractor.gif"",""img/Fire_Up_Distractor.gif"",""img/Fire_Up_Distractor.gif"",""img/Fire_Up_Distractor.gif""]","6","targetDown_distractorsUp"
"","","","","","html-keyboard-response","136","286989","0.0-14.0-0.0-0.61","5f983f3b00bbab0c4b28149a","619531dcf66c91622fa1b861","6195a2161d2e6fc9ed9c4f4b","null","","null","","","","","main_T1_ITI","","","","",""
"","","","","","visual-search-circle","137","288558","0.0-14.0-0.0-1.61","5f983f3b00bbab0c4b28149a","619531dcf66c91622fa1b861","6195a2161d2e6fc9ed9c4f4b","565.4000000059605","","d","true","[[237,593],[559,450],[522,99],[177,25],[1,331]]","true","5","main_T2_Trial","d","img/Fire_Down_Target.gif","[""img/Fire_Up_Distractor.gif"",""img/Fire_Up_Distractor.gif"",""img/Fire_Up_Distractor.gif"",""img/Fire_Up_Distractor.gif"",""img/Fire_Up_Distractor.gif"",""img/Fire_Up_Distractor.gif"",""img/Fire_Up_Distractor.gif"",""img/Fire_Up_Distractor.gif"",""img/Fire_Up_Distractor.gif"",""img/Fire_Up_Distractor.gif"",""img/Fire_Up_Distractor.gif"",""img/Fire_Up_Distractor.gif""]","5","targetDown_distractorsUp"
"","","","","","html-keyboard-response","138","288560","0.0-14.0-0.0-0.62","5f983f3b00bbab0c4b28149a","619531dcf66c91622fa1b861","6195a2161d2e6fc9ed9c4f4b","null","","null","","","","","main_T1_ITI","","","","",""
"","","","","","visual-search-circle","139","290268","0.0-14.0-0.0-1.62","5f983f3b00bbab0c4b28149a","619531dcf66c91622fa1b861","6195a2161d2e6fc9ed9c4f4b","703.2999999821186","","d","true","[[0,320],[227,591],[554,458],[529,107],[187,21]]","true","5","main_T2_Trial","d","img/Fire_Down_Target.gif","[""img/Fire_Up_Distractor.gif"",""img/Fire_Up_Distractor.gif"",""img/Fire_Up_Distractor.gif"",""img/Fire_Up_Distractor.gif"",""img/Fire_Up_Distractor.gif"",""img/Fire_Up_Distractor.gif"",""img/Fire_Up_Distractor.gif"",""img/Fire_Up_Distractor.gif"",""img/Fire_Up_Distractor.gif"",""img/Fire_Up_Distractor.gif"",""img/Fire_Up_Distractor.gif"",""img/Fire_Up_Distractor.gif""]","5","targetDown_distractorsUp"
"","","","","","html-keyboard-response","140","290269","0.0-14.0-0.0-0.63","5f983f3b00bbab0c4b28149a","619531dcf66c91622fa1b861","6195a2161d2e6fc9ed9c4f4b","null","","null","","","","","main_T1_ITI","","","","",""
"","","","","","visual-search-circle","141","292030","0.0-14.0-0.0-1.63","5f983f3b00bbab0c4b28149a","619531dcf66c91622fa1b861","6195a2161d2e6fc9ed9c4f4b","752.5999999940395","","d","true","[[150,40],[3,255],[80,504],[322,599],[547,468],[586,211],[409,20]]","true","7","main_T2_Trial","d","img/Fire_Down_Target.gif","[""img/Fire_Up_Distractor.gif"",""img/Fire_Up_Distractor.gif"",""img/Fire_Up_Distractor.gif"",""img/Fire_Up_Distractor.gif"",""img/Fire_Up_Distractor.gif"",""img/Fire_Up_Distractor.gif"",""img/Fire_Up_Distractor.gif"",""img/Fire_Up_Distractor.gif"",""img/Fire_Up_Distractor.gif"",""img/Fire_Up_Distractor.gif"",""img/Fire_Up_Distractor.gif"",""img/Fire_Up_Distractor.gif""]","7","targetDown_distractorsUp"
"","","","","","html-keyboard-response","142","292032","0.0-14.0-0.0-0.64","5f983f3b00bbab0c4b28149a","619531dcf66c91622fa1b861","6195a2161d2e6fc9ed9c4f4b","null","","null","","","","","main_T1_ITI","","","","",""
"","","","","","visual-search-circle","143","294936","0.0-14.0-0.0-1.64","5f983f3b00bbab0c4b28149a","619531dcf66c91622fa1b861","6195a2161d2e6fc9ed9c4f4b","1894.5999999940395","","d","true","[[187,578],[529,492],[554,141],[227,8],[0,279]]","true","5","main_T2_Trial","d","img/Fire_Down_Target.gif","[""img/Fire_Up_Distractor.gif"",""img/Fire_Up_Distractor.gif"",""img/Fire_Up_Distractor.gif"",""img/Fire_Up_Distractor.gif"",""img/Fire_Up_Distractor.gif"",""img/Fire_Up_Distractor.gif"",""img/Fire_Up_Distractor.gif"",""img/Fire_Up_Distractor.gif"",""img/Fire_Up_Distractor.gif"",""img/Fire_Up_Distractor.gif"",""img/Fire_Up_Distractor.gif"",""img/Fire_Up_Distractor.gif""]","5","targetDown_distractorsUp"
"","","","","","html-keyboard-response","144","294937","0.0-14.0-0.0-0.65","5f983f3b00bbab0c4b28149a","619531dcf66c91622fa1b861","6195a2161d2e6fc9ed9c4f4b","null","","null","","","","","main_T1_ITI","","","","",""
"","","","","","visual-search-circle","145","297383","0.0-14.0-0.0-1.65","5f983f3b00bbab0c4b28149a","619531dcf66c91622fa1b861","6195a2161d2e6fc9ed9c4f4b","1438.0999999940395","","s","true","[[554,141],[367,7],[141,45],[7,232],[45,458],[232,592],[458,554],[592,367]]","false","8","main_T2_Trial","s","img/Fire_Down_Target.gif","[""img/Fire_Up_Distractor.gif"",""img/Fire_Up_Distractor.gif"",""img/Fire_Up_Distractor.gif"",""img/Fire_Up_Distractor.gif"",""img/Fire_Up_Distractor.gif"",""img/Fire_Up_Distractor.gif"",""img/Fire_Up_Distractor.gif"",""img/Fire_Up_Distractor.gif"",""img/Fire_Up_Distractor.gif"",""img/Fire_Up_Distractor.gif"",""img/Fire_Up_Distractor.gif"",""img/Fire_Up_Distractor.gif""]","8","targetDown_distractorsUp"
"","","","","","html-keyboard-response","146","297385","0.0-14.0-0.0-0.66","5f983f3b00bbab0c4b28149a","619531dcf66c91622fa1b861","6195a2161d2e6fc9ed9c4f4b","null","","null","","","","","main_T1_ITI","","","","",""
"","","","","","visual-search-circle","147","299581","0.0-14.0-0.0-1.66","5f983f3b00bbab0c4b28149a","619531dcf66c91622fa1b861","6195a2161d2e6fc9ed9c4f4b","1186.7999999821186","","s","true","[[326,598],[549,465],[585,208],[406,19],[146,42],[2,258],[82,506]]","false","7","main_T2_Trial","s","img/Fire_Up_Target.gif","[""img/Fire_Down_Distractor.gif"",""img/Fire_Down_Distractor.gif"",""img/Fire_Down_Distractor.gif"",""img/Fire_Down_Distractor.gif"",""img/Fire_Down_Distractor.gif"",""img/Fire_Down_Distractor.gif"",""img/Fire_Down_Distractor.gif"",""img/Fire_Down_Distractor.gif"",""img/Fire_Down_Distractor.gif"",""img/Fire_Down_Distractor.gif"",""img/Fire_Down_Distractor.gif"",""img/Fire_Down_Distractor.gif""]","7","targetUp_distractorsDown"
"","","","","","html-keyboard-response","148","299584","0.0-14.0-0.0-0.67","5f983f3b00bbab0c4b28149a","619531dcf66c91622fa1b861","6195a2161d2e6fc9ed9c4f4b","null","","null","","","","","main_T1_ITI","","","","",""
"","","","","","visual-search-circle","149","301223","0.0-14.0-0.0-1.67","5f983f3b00bbab0c4b28149a","619531dcf66c91622fa1b861","6195a2161d2e6fc9ed9c4f4b","631.6000000238419","","s","true","[[480,60],[182,23],[2,263],[119,539],[417,576],[597,336]]","false","6","main_T2_Trial","s","img/Fire_Up_Target.gif","[""img/Fire_Down_Distractor.gif"",""img/Fire_Down_Distractor.gif"",""img/Fire_Down_Distractor.gif"",""img/Fire_Down_Distractor.gif"",""img/Fire_Down_Distractor.gif"",""img/Fire_Down_Distractor.gif"",""img/Fire_Down_Distractor.gif"",""img/Fire_Down_Distractor.gif"",""img/Fire_Down_Distractor.gif"",""img/Fire_Down_Distractor.gif"",""img/Fire_Down_Distractor.gif"",""img/Fire_Down_Distractor.gif""]","6","targetUp_distractorsDown"
"","","","","","html-keyboard-response","150","301225","0.0-14.0-0.0-0.68","5f983f3b00bbab0c4b28149a","619531dcf66c91622fa1b861","6195a2161d2e6fc9ed9c4f4b","null","","null","","","","","main_T1_ITI","","","","",""
"","","","","","visual-search-circle","151","302888","0.0-14.0-0.0-1.68","5f983f3b00bbab0c4b28149a","619531dcf66c91622fa1b861","6195a2161d2e6fc9ed9c4f4b","652.7000000178814","","s","true","[[25,177],[19,407],[177,574],[407,580],[574,422],[580,192],[422,25],[192,19]]","false","8","main_T2_Trial","s","img/Fire_Down_Target.gif","[""img/Fire_Up_Distractor.gif"",""img/Fire_Up_Distractor.gif"",""img/Fire_Up_Distractor.gif"",""img/Fire_Up_Distractor.gif"",""img/Fire_Up_Distractor.gif"",""img/Fire_Up_Distractor.gif"",""img/Fire_Up_Distractor.gif"",""img/Fire_Up_Distractor.gif"",""img/Fire_Up_Distractor.gif"",""img/Fire_Up_Distractor.gif"",""img/Fire_Up_Distractor.gif"",""img/Fire_Up_Distractor.gif""]","8","targetDown_distractorsUp"
"","","","","","html-keyboard-response","152","302890","0.0-14.0-0.0-0.69","5f983f3b00bbab0c4b28149a","619531dcf66c91622fa1b861","6195a2161d2e6fc9ed9c4f4b","null","","null","","","","","main_T1_ITI","","","","",""
"","","","","","visual-search-circle","153","304604","0.0-14.0-0.0-1.69","5f983f3b00bbab0c4b28149a","619531dcf66c91622fa1b861","6195a2161d2e6fc9ed9c4f4b","705.6999999880791","","s","true","[[13,212],[127,545],[480,539],[583,202],[294,0]]","false","5","main_T2_Trial","s","img/Fire_Down_Target.gif","[""img/Fire_Up_Distractor.gif"",""img/Fire_Up_Distractor.gif"",""img/Fire_Up_Distractor.gif"",""img/Fire_Up_Distractor.gif"",""img/Fire_Up_Distractor.gif"",""img/Fire_Up_Distractor.gif"",""img/Fire_Up_Distractor.gif"",""img/Fire_Up_Distractor.gif"",""img/Fire_Up_Distractor.gif"",""img/Fire_Up_Distractor.gif"",""img/Fire_Up_Distractor.gif"",""img/Fire_Up_Distractor.gif""]","5","targetDown_distractorsUp"
"","","","","","html-keyboard-response","154","304606","0.0-14.0-0.0-0.70","5f983f3b00bbab0c4b28149a","619531dcf66c91622fa1b861","6195a2161d2e6fc9ed9c4f4b","null","","null","","","","","main_T1_ITI","","","","",""
"","","","","","visual-search-circle","155","306316","0.0-14.0-0.0-1.70","5f983f3b00bbab0c4b28149a","619531dcf66c91622fa1b861","6195a2161d2e6fc9ed9c4f4b","703.5","","s","true","[[60,480],[397,583],[599,294],[387,13],[54,127]]","false","5","main_T2_Trial","s","img/Fire_Up_Target.gif","[""img/Fire_Down_Distractor.gif"",""img/Fire_Down_Distractor.gif"",""img/Fire_Down_Distractor.gif"",""img/Fire_Down_Distractor.gif"",""img/Fire_Down_Distractor.gif"",""img/Fire_Down_Distractor.gif"",""img/Fire_Down_Distractor.gif"",""img/Fire_Down_Distractor.gif"",""img/Fire_Down_Distractor.gif"",""img/Fire_Down_Distractor.gif"",""img/Fire_Down_Distractor.gif"",""img/Fire_Down_Distractor.gif""]","5","targetUp_distractorsDown"
"","","","","","html-keyboard-response","156","306318","0.0-14.0-0.0-0.71","5f983f3b00bbab0c4b28149a","619531dcf66c91622fa1b861","6195a2161d2e6fc9ed9c4f4b","null","","null","","","","","main_T1_ITI","","","","",""
"","","","","","visual-search-circle","157","308074","0.0-14.0-0.0-1.71","5f983f3b00bbab0c4b28149a","619531dcf66c91622fa1b861","6195a2161d2e6fc9ed9c4f4b","748.5","","d","true","[[597,263],[417,23],[119,60],[2,336],[182,576],[480,539]]","true","6","main_T2_Trial","d","img/Fire_Up_Target.gif","[""img/Fire_Down_Distractor.gif"",""img/Fire_Down_Distractor.gif"",""img/Fire_Down_Distractor.gif"",""img/Fire_Down_Distractor.gif"",""img/Fire_Down_Distractor.gif"",""img/Fire_Down_Distractor.gif"",""img/Fire_Down_Distractor.gif"",""img/Fire_Down_Distractor.gif"",""img/Fire_Down_Distractor.gif"",""img/Fire_Down_Distractor.gif"",""img/Fire_Down_Distractor.gif"",""img/Fire_Down_Distractor.gif""]","6","targetUp_distractorsDown"
"","","","","","html-keyboard-response","158","308076","0.0-14.0-0.0-0.72","5f983f3b00bbab0c4b28149a","619531dcf66c91622fa1b861","6195a2161d2e6fc9ed9c4f4b","null","","null","","","","","main_T1_ITI","","","","",""
"","","","","","visual-search-circle","159","309771","0.0-14.0-0.0-1.72","5f983f3b00bbab0c4b28149a","619531dcf66c91622fa1b861","6195a2161d2e6fc9ed9c4f4b","685.8000000119209","","d","true","[[559,150],[237,6],[1,268],[177,574],[522,500]]","true","5","main_T2_Trial","d","img/Fire_Up_Target.gif","[""img/Fire_Down_Distractor.gif"",""img/Fire_Down_Distractor.gif"",""img/Fire_Down_Distractor.gif"",""img/Fire_Down_Distractor.gif"",""img/Fire_Down_Distractor.gif"",""img/Fire_Down_Distractor.gif"",""img/Fire_Down_Distractor.gif"",""img/Fire_Down_Distractor.gif"",""img/Fire_Down_Distractor.gif"",""img/Fire_Down_Distractor.gif"",""img/Fire_Down_Distractor.gif"",""img/Fire_Down_Distractor.gif""]","5","targetUp_distractorsDown"
"","","","","","html-keyboard-response","160","309773","0.0-14.0-0.0-0.73","5f983f3b00bbab0c4b28149a","619531dcf66c91622fa1b861","6195a2161d2e6fc9ed9c4f4b","null","","null","","","","","main_T1_ITI","","","","",""
"","","","","","visual-search-circle","161","311658","0.0-14.0-0.0-1.73","5f983f3b00bbab0c4b28149a","619531dcf66c91622fa1b861","6195a2161d2e6fc9ed9c4f4b","875.9000000059605","","d","true","[[77,99],[0,315],[99,522],[315,599],[522,500],[599,284],[500,77],[284,0]]","true","8","main_T2_Trial","d","img/Fire_Down_Target.gif","[""img/Fire_Up_Distractor.gif"",""img/Fire_Up_Distractor.gif"",""img/Fire_Up_Distractor.gif"",""img/Fire_Up_Distractor.gif"",""img/Fire_Up_Distractor.gif"",""img/Fire_Up_Distractor.gif"",""img/Fire_Up_Distractor.gif"",""img/Fire_Up_Distractor.gif"",""img/Fire_Up_Distractor.gif"",""img/Fire_Up_Distractor.gif"",""img/Fire_Up_Distractor.gif"",""img/Fire_Up_Distractor.gif""]","8","targetDown_distractorsUp"
"","","","","","html-keyboard-response","162","311660","0.0-14.0-0.0-0.74","5f983f3b00bbab0c4b28149a","619531dcf66c91622fa1b861","6195a2161d2e6fc9ed9c4f4b","null","","null","","","","","main_T1_ITI","","","","",""
"","","","","","visual-search-circle","163","313270","0.0-14.0-0.0-1.74","5f983f3b00bbab0c4b28149a","619531dcf66c91622fa1b861","6195a2161d2e6fc9ed9c4f4b","603","","s","true","[[95,519],[445,562],[594,242],[336,2],[28,173]]","false","5","main_T2_Trial","s","img/Fire_Up_Target.gif","[""img/Fire_Down_Distractor.gif"",""img/Fire_Down_Distractor.gif"",""img/Fire_Down_Distractor.gif"",""img/Fire_Down_Distractor.gif"",""img/Fire_Down_Distractor.gif"",""img/Fire_Down_Distractor.gif"",""img/Fire_Down_Distractor.gif"",""img/Fire_Down_Distractor.gif"",""img/Fire_Down_Distractor.gif"",""img/Fire_Down_Distractor.gif"",""img/Fire_Down_Distractor.gif"",""img/Fire_Down_Distractor.gif""]","5","targetUp_distractorsDown"
"","","","","","html-keyboard-response","164","313271","0.0-14.0-0.0-0.75","5f983f3b00bbab0c4b28149a","619531dcf66c91622fa1b861","6195a2161d2e6fc9ed9c4f4b","null","","null","","","","","main_T1_ITI","","","","",""
"","","","","","visual-search-circle","165","314962","0.0-14.0-0.0-1.75","5f983f3b00bbab0c4b28149a","619531dcf66c91622fa1b861","6195a2161d2e6fc9ed9c4f4b","684","","d","true","[[392,585],[585,207],[207,14],[14,392]]","true","4","main_T2_Trial","d","img/Fire_Down_Target.gif","[""img/Fire_Up_Distractor.gif"",""img/Fire_Up_Distractor.gif"",""img/Fire_Up_Distractor.gif"",""img/Fire_Up_Distractor.gif"",""img/Fire_Up_Distractor.gif"",""img/Fire_Up_Distractor.gif"",""img/Fire_Up_Distractor.gif"",""img/Fire_Up_Distractor.gif"",""img/Fire_Up_Distractor.gif"",""img/Fire_Up_Distractor.gif"",""img/Fire_Up_Distractor.gif"",""img/Fire_Up_Distractor.gif""]","4","targetDown_distractorsUp"
"","","","","","html-keyboard-response","166","314963","0.0-14.0-0.0-0.76","5f983f3b00bbab0c4b28149a","619531dcf66c91622fa1b861","6195a2161d2e6fc9ed9c4f4b","null","","null","","","","","main_T1_ITI","","","","",""
"","","","","","visual-search-circle","167","316613","0.0-14.0-0.0-1.76","5f983f3b00bbab0c4b28149a","619531dcf66c91622fa1b861","6195a2161d2e6fc9ed9c4f4b","641","","d","true","[[542,476],[596,253],[476,57],[253,3],[57,123],[3,346],[123,542],[346,596]]","true","8","main_T2_Trial","d","img/Fire_Down_Target.gif","[""img/Fire_Up_Distractor.gif"",""img/Fire_Up_Distractor.gif"",""img/Fire_Up_Distractor.gif"",""img/Fire_Up_Distractor.gif"",""img/Fire_Up_Distractor.gif"",""img/Fire_Up_Distractor.gif"",""img/Fire_Up_Distractor.gif"",""img/Fire_Up_Distractor.gif"",""img/Fire_Up_Distractor.gif"",""img/Fire_Up_Distractor.gif"",""img/Fire_Up_Distractor.gif"",""img/Fire_Up_Distractor.gif""]","8","targetDown_distractorsUp"
"","","","","","html-keyboard-response","168","316617","0.0-14.0-0.0-0.77","5f983f3b00bbab0c4b28149a","619531dcf66c91622fa1b861","6195a2161d2e6fc9ed9c4f4b","null","","null","","","","","main_T1_ITI","","","","",""
"","","","","","visual-search-circle","169","318377","0.0-14.0-0.0-1.77","5f983f3b00bbab0c4b28149a","619531dcf66c91622fa1b861","6195a2161d2e6fc9ed9c4f4b","750.6999999880791","","d","false","[[454,42],[227,8],[42,145],[8,372],[145,557],[372,591],[557,454],[591,227]]","false","8","main_T2_Trial","s","img/Fire_Up_Target.gif","[""img/Fire_Down_Distractor.gif"",""img/Fire_Down_Distractor.gif"",""img/Fire_Down_Distractor.gif"",""img/Fire_Down_Distractor.gif"",""img/Fire_Down_Distractor.gif"",""img/Fire_Down_Distractor.gif"",""img/Fire_Down_Distractor.gif"",""img/Fire_Down_Distractor.gif"",""img/Fire_Down_Distractor.gif"",""img/Fire_Down_Distractor.gif"",""img/Fire_Down_Distractor.gif"",""img/Fire_Down_Distractor.gif""]","8","targetUp_distractorsDown"
"","","","","","html-keyboard-response","170","318379","0.0-14.0-0.0-0.78","5f983f3b00bbab0c4b28149a","619531dcf66c91622fa1b861","6195a2161d2e6fc9ed9c4f4b","null","","null","","","","","main_T1_ITI","","","","",""
"","","","","","visual-search-circle","171","319969","0.0-14.0-0.0-1.78","5f983f3b00bbab0c4b28149a","619531dcf66c91622fa1b861","6195a2161d2e6fc9ed9c4f4b","580.9000000059605","","s","false","[[542,476],[476,57],[57,123],[123,542]]","true","4","main_T2_Trial","d","img/Fire_Down_Target.gif","[""img/Fire_Up_Distractor.gif"",""img/Fire_Up_Distractor.gif"",""img/Fire_Up_Distractor.gif"",""img/Fire_Up_Distractor.gif"",""img/Fire_Up_Distractor.gif"",""img/Fire_Up_Distractor.gif"",""img/Fire_Up_Distractor.gif"",""img/Fire_Up_Distractor.gif"",""img/Fire_Up_Distractor.gif"",""img/Fire_Up_Distractor.gif"",""img/Fire_Up_Distractor.gif"",""img/Fire_Up_Distractor.gif""]","4","targetDown_distractorsUp"
"","","","","","html-keyboard-response","172","323574","0.0-14.0-0.0-0.79","5f983f3b00bbab0c4b28149a","619531dcf66c91622fa1b861","6195a2161d2e6fc9ed9c4f4b","3604.699999988079","Wow! You've completed 80 out of 160 trials! </p> <p>  </p><p> Take a quick break, then press any key when you're ready to continue.","d","","","","","main_T1_ITI","","","","",""
"","","","","","visual-search-circle","173","325309","0.0-14.0-0.0-1.79","5f983f3b00bbab0c4b28149a","619531dcf66c91622fa1b861","6195a2161d2e6fc9ed9c4f4b","727","","d","true","[[580,407],[558,148],[342,3],[94,81],[1,324],[132,549],[390,586]]","true","7","main_T2_Trial","d","img/Fire_Down_Target.gif","[""img/Fire_Up_Distractor.gif"",""img/Fire_Up_Distractor.gif"",""img/Fire_Up_Distractor.gif"",""img/Fire_Up_Distractor.gif"",""img/Fire_Up_Distractor.gif"",""img/Fire_Up_Distractor.gif"",""img/Fire_Up_Distractor.gif"",""img/Fire_Up_Distractor.gif"",""img/Fire_Up_Distractor.gif"",""img/Fire_Up_Distractor.gif"",""img/Fire_Up_Distractor.gif"",""img/Fire_Up_Distractor.gif""]","7","targetDown_distractorsUp"
"","","","","","html-keyboard-response","174","325310","0.0-14.0-0.0-0.80","5f983f3b00bbab0c4b28149a","619531dcf66c91622fa1b861","6195a2161d2e6fc9ed9c4f4b","null","","null","","","","","main_T1_ITI","","","","",""
"","","","","","visual-search-circle","175","327320","0.0-14.0-0.0-1.80","5f983f3b00bbab0c4b28149a","619531dcf66c91622fa1b861","6195a2161d2e6fc9ed9c4f4b","1000.3000000119209","","d","false","[[37,445],[445,562],[562,154],[154,37]]","false","4","main_T2_Trial","s","img/Fire_Up_Target.gif","[""img/Fire_Down_Distractor.gif"",""img/Fire_Down_Distractor.gif"",""img/Fire_Down_Distractor.gif"",""img/Fire_Down_Distractor.gif"",""img/Fire_Down_Distractor.gif"",""img/Fire_Down_Distractor.gif"",""img/Fire_Down_Distractor.gif"",""img/Fire_Down_Distractor.gif"",""img/Fire_Down_Distractor.gif"",""img/Fire_Down_Distractor.gif"",""img/Fire_Down_Distractor.gif"",""img/Fire_Down_Distractor.gif""]","4","targetUp_distractorsDown"
"","","","","","html-keyboard-response","176","327321","0.0-14.0-0.0-0.81","5f983f3b00bbab0c4b28149a","619531dcf66c91622fa1b861","6195a2161d2e6fc9ed9c4f4b","null","","null","","","","","main_T1_ITI","","","","",""
"","","","","","visual-search-circle","177","329301","0.0-14.0-0.0-1.81","5f983f3b00bbab0c4b28149a","619531dcf66c91622fa1b861","6195a2161d2e6fc9ed9c4f4b","970.2999999821186","","d","true","[[63,484],[263,597],[484,536],[597,336],[536,115],[336,2],[115,63],[2,263]]","true","8","main_T2_Trial","d","img/Fire_Up_Target.gif","[""img/Fire_Down_Distractor.gif"",""img/Fire_Down_Distractor.gif"",""img/Fire_Down_Distractor.gif"",""img/Fire_Down_Distractor.gif"",""img/Fire_Down_Distractor.gif"",""img/Fire_Down_Distractor.gif"",""img/Fire_Down_Distractor.gif"",""img/Fire_Down_Distractor.gif"",""img/Fire_Down_Distractor.gif"",""img/Fire_Down_Distractor.gif"",""img/Fire_Down_Distractor.gif"",""img/Fire_Down_Distractor.gif""]","8","targetUp_distractorsDown"
"","","","","","html-keyboard-response","178","329303","0.0-14.0-0.0-0.82","5f983f3b00bbab0c4b28149a","619531dcf66c91622fa1b861","6195a2161d2e6fc9ed9c4f4b","null","","null","","","","","main_T1_ITI","","","","",""
"","","","","","visual-search-circle","179","331007","0.0-14.0-0.0-1.82","5f983f3b00bbab0c4b28149a","619531dcf66c91622fa1b861","6195a2161d2e6fc9ed9c4f4b","699.1999999880791","","s","true","[[284,0],[10,222],[136,551],[488,533],[580,192]]","false","5","main_T2_Trial","s","img/Fire_Down_Target.gif","[""img/Fire_Up_Distractor.gif"",""img/Fire_Up_Distractor.gif"",""img/Fire_Up_Distractor.gif"",""img/Fire_Up_Distractor.gif"",""img/Fire_Up_Distractor.gif"",""img/Fire_Up_Distractor.gif"",""img/Fire_Up_Distractor.gif"",""img/Fire_Up_Distractor.gif"",""img/Fire_Up_Distractor.gif"",""img/Fire_Up_Distractor.gif"",""img/Fire_Up_Distractor.gif"",""img/Fire_Up_Distractor.gif""]","5","targetDown_distractorsUp"
"","","","","","html-keyboard-response","180","331011","0.0-14.0-0.0-0.83","5f983f3b00bbab0c4b28149a","619531dcf66c91622fa1b861","6195a2161d2e6fc9ed9c4f4b","null","","null","","","","","main_T1_ITI","","","","",""
"","","","","","visual-search-circle","181","332623","0.0-14.0-0.0-1.83","5f983f3b00bbab0c4b28149a","619531dcf66c91622fa1b861","6195a2161d2e6fc9ed9c4f4b","602.4000000059605","","d","true","[[592,367],[454,42],[103,73],[23,417],[326,598]]","true","5","main_T2_Trial","d","img/Fire_Up_Target.gif","[""img/Fire_Down_Distractor.gif"",""img/Fire_Down_Distractor.gif"",""img/Fire_Down_Distractor.gif"",""img/Fire_Down_Distractor.gif"",""img/Fire_Down_Distractor.gif"",""img/Fire_Down_Distractor.gif"",""img/Fire_Down_Distractor.gif"",""img/Fire_Down_Distractor.gif"",""img/Fire_Down_Distractor.gif"",""img/Fire_Down_Distractor.gif"",""img/Fire_Down_Distractor.gif"",""img/Fire_Down_Distractor.gif""]","5","targetUp_distractorsDown"
"","","","","","html-keyboard-response","182","332625","0.0-14.0-0.0-0.84","5f983f3b00bbab0c4b28149a","619531dcf66c91622fa1b861","6195a2161d2e6fc9ed9c4f4b","null","","null","","","","","main_T1_ITI","","","","",""
"","","","","","visual-search-circle","183","334222","0.0-14.0-0.0-1.84","5f983f3b00bbab0c4b28149a","619531dcf66c91622fa1b861","6195a2161d2e6fc9ed9c4f4b","585","","d","true","[[589,377],[512,87],[222,10],[10,222],[87,512],[377,589]]","true","6","main_T2_Trial","d","img/Fire_Down_Target.gif","[""img/Fire_Up_Distractor.gif"",""img/Fire_Up_Distractor.gif"",""img/Fire_Up_Distractor.gif"",""img/Fire_Up_Distractor.gif"",""img/Fire_Up_Distractor.gif"",""img/Fire_Up_Distractor.gif"",""img/Fire_Up_Distractor.gif"",""img/Fire_Up_Distractor.gif"",""img/Fire_Up_Distractor.gif"",""img/Fire_Up_Distractor.gif"",""img/Fire_Up_Distractor.gif"",""img/Fire_Up_Distractor.gif""]","6","targetDown_distractorsUp"
"","","","","","html-keyboard-response","184","334224","0.0-14.0-0.0-0.85","5f983f3b00bbab0c4b28149a","619531dcf66c91622fa1b861","6195a2161d2e6fc9ed9c4f4b","null","","null","","","","","main_T1_ITI","","","","",""
"","","","","","visual-search-circle","185","335892","0.0-14.0-0.0-1.85","5f983f3b00bbab0c4b28149a","619531dcf66c91622fa1b861","6195a2161d2e6fc9ed9c4f4b","660.2999999821186","","d","true","[[163,32],[0,284],[136,551],[436,567],[599,315],[463,48]]","true","6","main_T2_Trial","d","img/Fire_Up_Target.gif","[""img/Fire_Down_Distractor.gif"",""img/Fire_Down_Distractor.gif"",""img/Fire_Down_Distractor.gif"",""img/Fire_Down_Distractor.gif"",""img/Fire_Down_Distractor.gif"",""img/Fire_Down_Distractor.gif"",""img/Fire_Down_Distractor.gif"",""img/Fire_Down_Distractor.gif"",""img/Fire_Down_Distractor.gif"",""img/Fire_Down_Distractor.gif"",""img/Fire_Down_Distractor.gif"",""img/Fire_Down_Distractor.gif""]","6","targetUp_distractorsDown"
"","","","","","html-keyboard-response","186","335893","0.0-14.0-0.0-0.86","5f983f3b00bbab0c4b28149a","619531dcf66c91622fa1b861","6195a2161d2e6fc9ed9c4f4b","null","","null","","","","","main_T1_ITI","","","","",""
"","","","","","visual-search-circle","187","337712","0.0-14.0-0.0-1.86","5f983f3b00bbab0c4b28149a","619531dcf66c91622fa1b861","6195a2161d2e6fc9ed9c4f4b","808.1999999880791","","d","true","[[557,454],[591,227],[454,42],[227,8],[42,145],[8,372],[145,557],[372,591]]","true","8","main_T2_Trial","d","img/Fire_Down_Target.gif","[""img/Fire_Up_Distractor.gif"",""img/Fire_Up_Distractor.gif"",""img/Fire_Up_Distractor.gif"",""img/Fire_Up_Distractor.gif"",""img/Fire_Up_Distractor.gif"",""img/Fire_Up_Distractor.gif"",""img/Fire_Up_Distractor.gif"",""img/Fire_Up_Distractor.gif"",""img/Fire_Up_Distractor.gif"",""img/Fire_Up_Distractor.gif"",""img/Fire_Up_Distractor.gif"",""img/Fire_Up_Distractor.gif""]","8","targetDown_distractorsUp"
"","","","","","html-keyboard-response","188","337716","0.0-14.0-0.0-0.87","5f983f3b00bbab0c4b28149a","619531dcf66c91622fa1b861","6195a2161d2e6fc9ed9c4f4b","null","","null","","","","","main_T1_ITI","","","","",""
"","","","","","visual-search-circle","189","339664","0.0-14.0-0.0-1.87","5f983f3b00bbab0c4b28149a","619531dcf66c91622fa1b861","6195a2161d2e6fc9ed9c4f4b","938.5999999940395","","s","true","[[504,80],[212,13],[7,232],[95,519],[387,586],[592,367]]","false","6","main_T2_Trial","s","img/Fire_Down_Target.gif","[""img/Fire_Up_Distractor.gif"",""img/Fire_Up_Distractor.gif"",""img/Fire_Up_Distractor.gif"",""img/Fire_Up_Distractor.gif"",""img/Fire_Up_Distractor.gif"",""img/Fire_Up_Distractor.gif"",""img/Fire_Up_Distractor.gif"",""img/Fire_Up_Distractor.gif"",""img/Fire_Up_Distractor.gif"",""img/Fire_Up_Distractor.gif"",""img/Fire_Up_Distractor.gif"",""img/Fire_Up_Distractor.gif""]","6","targetDown_distractorsUp"
"","","","","","html-keyboard-response","190","339666","0.0-14.0-0.0-0.88","5f983f3b00bbab0c4b28149a","619531dcf66c91622fa1b861","6195a2161d2e6fc9ed9c4f4b","null","","null","","","","","main_T1_ITI","","","","",""
"","","","","","visual-search-circle","191","341686","0.0-14.0-0.0-1.88","5f983f3b00bbab0c4b28149a","619531dcf66c91622fa1b861","6195a2161d2e6fc9ed9c4f4b","1010.7000000178814","","d","true","[[163,567],[567,436],[436,32],[32,163]]","true","4","main_T2_Trial","d","img/Fire_Up_Target.gif","[""img/Fire_Down_Distractor.gif"",""img/Fire_Down_Distractor.gif"",""img/Fire_Down_Distractor.gif"",""img/Fire_Down_Distractor.gif"",""img/Fire_Down_Distractor.gif"",""img/Fire_Down_Distractor.gif"",""img/Fire_Down_Distractor.gif"",""img/Fire_Down_Distractor.gif"",""img/Fire_Down_Distractor.gif"",""img/Fire_Down_Distractor.gif"",""img/Fire_Down_Distractor.gif"",""img/Fire_Down_Distractor.gif""]","4","targetUp_distractorsDown"
"","","","","","html-keyboard-response","192","341687","0.0-14.0-0.0-0.89","5f983f3b00bbab0c4b28149a","619531dcf66c91622fa1b861","6195a2161d2e6fc9ed9c4f4b","null","","null","","","","","main_T1_ITI","","","","",""
"","","","","","visual-search-circle","193","343458","0.0-14.0-0.0-1.89","5f983f3b00bbab0c4b28149a","619531dcf66c91622fa1b861","6195a2161d2e6fc9ed9c4f4b","760.3999999761581","","d","false","[[1,273],[93,517],[341,597],[557,453],[580,193],[391,14],[134,50]]","false","7","main_T2_Trial","s","img/Fire_Up_Target.gif","[""img/Fire_Down_Distractor.gif"",""img/Fire_Down_Distractor.gif"",""img/Fire_Down_Distractor.gif"",""img/Fire_Down_Distractor.gif"",""img/Fire_Down_Distractor.gif"",""img/Fire_Down_Distractor.gif"",""img/Fire_Down_Distractor.gif"",""img/Fire_Down_Distractor.gif"",""img/Fire_Down_Distractor.gif"",""img/Fire_Down_Distractor.gif"",""img/Fire_Down_Distractor.gif"",""img/Fire_Down_Distractor.gif""]","7","targetUp_distractorsDown"
"","","","","","html-keyboard-response","194","343459","0.0-14.0-0.0-0.90","5f983f3b00bbab0c4b28149a","619531dcf66c91622fa1b861","6195a2161d2e6fc9ed9c4f4b","null","","null","","","","","main_T1_ITI","","","","",""
"","","","","","visual-search-circle","195","345097","0.0-14.0-0.0-1.90","5f983f3b00bbab0c4b28149a","619531dcf66c91622fa1b861","6195a2161d2e6fc9ed9c4f4b","631","","d","false","[[387,13],[13,212],[212,586],[586,387]]","false","4","main_T2_Trial","s","img/Fire_Down_Target.gif","[""img/Fire_Up_Distractor.gif"",""img/Fire_Up_Distractor.gif"",""img/Fire_Up_Distractor.gif"",""img/Fire_Up_Distractor.gif"",""img/Fire_Up_Distractor.gif"",""img/Fire_Up_Distractor.gif"",""img/Fire_Up_Distractor.gif"",""img/Fire_Up_Distractor.gif"",""img/Fire_Up_Distractor.gif"",""img/Fire_Up_Distractor.gif"",""img/Fire_Up_Distractor.gif"",""img/Fire_Up_Distractor.gif""]","4","targetDown_distractorsUp"
"","","","","","html-keyboard-response","196","345099","0.0-14.0-0.0-0.91","5f983f3b00bbab0c4b28149a","619531dcf66c91622fa1b861","6195a2161d2e6fc9ed9c4f4b","null","","null","","","","","main_T1_ITI","","","","",""
"","","","","","visual-search-circle","197","347321","0.0-14.0-0.0-1.91","5f983f3b00bbab0c4b28149a","619531dcf66c91622fa1b861","6195a2161d2e6fc9ed9c4f4b","1218","","d","true","[[595,247],[247,4],[4,352],[352,595]]","true","4","main_T2_Trial","d","img/Fire_Down_Target.gif","[""img/Fire_Up_Distractor.gif"",""img/Fire_Up_Distractor.gif"",""img/Fire_Up_Distractor.gif"",""img/Fire_Up_Distractor.gif"",""img/Fire_Up_Distractor.gif"",""img/Fire_Up_Distractor.gif"",""img/Fire_Up_Distractor.gif"",""img/Fire_Up_Distractor.gif"",""img/Fire_Up_Distractor.gif"",""img/Fire_Up_Distractor.gif"",""img/Fire_Up_Distractor.gif"",""img/Fire_Up_Distractor.gif""]","4","targetDown_distractorsUp"
"","","","","","html-keyboard-response","198","347322","0.0-14.0-0.0-0.92","5f983f3b00bbab0c4b28149a","619531dcf66c91622fa1b861","6195a2161d2e6fc9ed9c4f4b","null","","null","","","","","main_T1_ITI","","","","",""
"","","","","","visual-search-circle","199","349020","0.0-14.0-0.0-1.92","5f983f3b00bbab0c4b28149a","619531dcf66c91622fa1b861","6195a2161d2e6fc9ed9c4f4b","691.5","","d","false","[[599,284],[436,32],[136,48],[0,315],[163,567],[463,551]]","false","6","main_T2_Trial","s","img/Fire_Down_Target.gif","[""img/Fire_Up_Distractor.gif"",""img/Fire_Up_Distractor.gif"",""img/Fire_Up_Distractor.gif"",""img/Fire_Up_Distractor.gif"",""img/Fire_Up_Distractor.gif"",""img/Fire_Up_Distractor.gif"",""img/Fire_Up_Distractor.gif"",""img/Fire_Up_Distractor.gif"",""img/Fire_Up_Distractor.gif"",""img/Fire_Up_Distractor.gif"",""img/Fire_Up_Distractor.gif"",""img/Fire_Up_Distractor.gif""]","6","targetDown_distractorsUp"
"","","","","","html-keyboard-response","200","349021","0.0-14.0-0.0-0.93","5f983f3b00bbab0c4b28149a","619531dcf66c91622fa1b861","6195a2161d2e6fc9ed9c4f4b","null","","null","","","","","main_T1_ITI","","","","",""
"","","","","","visual-search-circle","201","350691","0.0-14.0-0.0-1.93","5f983f3b00bbab0c4b28149a","619531dcf66c91622fa1b861","6195a2161d2e6fc9ed9c4f4b","661","","d","false","[[247,4],[36,156],[23,416],[218,588],[475,543],[599,314],[498,75]]","false","7","main_T2_Trial","s","img/Fire_Up_Target.gif","[""img/Fire_Down_Distractor.gif"",""img/Fire_Down_Distractor.gif"",""img/Fire_Down_Distractor.gif"",""img/Fire_Down_Distractor.gif"",""img/Fire_Down_Distractor.gif"",""img/Fire_Down_Distractor.gif"",""img/Fire_Down_Distractor.gif"",""img/Fire_Down_Distractor.gif"",""img/Fire_Down_Distractor.gif"",""img/Fire_Down_Distractor.gif"",""img/Fire_Down_Distractor.gif"",""img/Fire_Down_Distractor.gif""]","7","targetUp_distractorsDown"
"","","","","","html-keyboard-response","202","350692","0.0-14.0-0.0-0.94","5f983f3b00bbab0c4b28149a","619531dcf66c91622fa1b861","6195a2161d2e6fc9ed9c4f4b","null","","null","","","","","main_T1_ITI","","","","",""
"","","","","","visual-search-circle","203","352289","0.0-14.0-0.0-1.94","5f983f3b00bbab0c4b28149a","619531dcf66c91622fa1b861","6195a2161d2e6fc9ed9c4f4b","586.7000000178814","","d","false","[[488,533],[598,331],[533,111],[331,1],[111,66],[1,268],[66,488],[268,598]]","false","8","main_T2_Trial","s","img/Fire_Down_Target.gif","[""img/Fire_Up_Distractor.gif"",""img/Fire_Up_Distractor.gif"",""img/Fire_Up_Distractor.gif"",""img/Fire_Up_Distractor.gif"",""img/Fire_Up_Distractor.gif"",""img/Fire_Up_Distractor.gif"",""img/Fire_Up_Distractor.gif"",""img/Fire_Up_Distractor.gif"",""img/Fire_Up_Distractor.gif"",""img/Fire_Up_Distractor.gif"",""img/Fire_Up_Distractor.gif"",""img/Fire_Up_Distractor.gif""]","8","targetDown_distractorsUp"
"","","","","","html-keyboard-response","204","352290","0.0-14.0-0.0-0.95","5f983f3b00bbab0c4b28149a","619531dcf66c91622fa1b861","6195a2161d2e6fc9ed9c4f4b","null","","null","","","","","main_T1_ITI","","","","",""
"","","","","","visual-search-circle","205","353938","0.0-14.0-0.0-1.95","5f983f3b00bbab0c4b28149a","619531dcf66c91622fa1b861","6195a2161d2e6fc9ed9c4f4b","640.2999999821186","","d","false","[[159,564],[419,575],[589,378],[541,122],[311,0],[73,103],[5,355]]","false","7","main_T2_Trial","s","img/Fire_Up_Target.gif","[""img/Fire_Down_Distractor.gif"",""img/Fire_Down_Distractor.gif"",""img/Fire_Down_Distractor.gif"",""img/Fire_Down_Distractor.gif"",""img/Fire_Down_Distractor.gif"",""img/Fire_Down_Distractor.gif"",""img/Fire_Down_Distractor.gif"",""img/Fire_Down_Distractor.gif"",""img/Fire_Down_Distractor.gif"",""img/Fire_Down_Distractor.gif"",""img/Fire_Down_Distractor.gif"",""img/Fire_Down_Distractor.gif""]","7","targetUp_distractorsDown"
"","","","","","html-keyboard-response","206","353940","0.0-14.0-0.0-0.96","5f983f3b00bbab0c4b28149a","619531dcf66c91622fa1b861","6195a2161d2e6fc9ed9c4f4b","null","","null","","","","","main_T1_ITI","","","","",""
"","","","","","visual-search-circle","207","357669","0.0-14.0-0.0-1.96","5f983f3b00bbab0c4b28149a","619531dcf66c91622fa1b861","6195a2161d2e6fc9ed9c4f4b","2724.5999999940395","","s","true","[[222,10],[10,377],[377,589],[589,222]]","false","4","main_T2_Trial","s","img/Fire_Down_Target.gif","[""img/Fire_Up_Distractor.gif"",""img/Fire_Up_Distractor.gif"",""img/Fire_Up_Distractor.gif"",""img/Fire_Up_Distractor.gif"",""img/Fire_Up_Distractor.gif"",""img/Fire_Up_Distractor.gif"",""img/Fire_Up_Distractor.gif"",""img/Fire_Up_Distractor.gif"",""img/Fire_Up_Distractor.gif"",""img/Fire_Up_Distractor.gif"",""img/Fire_Up_Distractor.gif"",""img/Fire_Up_Distractor.gif""]","4","targetDown_distractorsUp"
"","","","","","html-keyboard-response","208","357671","0.0-14.0-0.0-0.97","5f983f3b00bbab0c4b28149a","619531dcf66c91622fa1b861","6195a2161d2e6fc9ed9c4f4b","null","","null","","","","","main_T1_ITI","","","","",""
"","","","","","visual-search-circle","209","359638","0.0-14.0-0.0-1.97","5f983f3b00bbab0c4b28149a","619531dcf66c91622fa1b861","6195a2161d2e6fc9ed9c4f4b","959.1999999880791","","s","true","[[402,18],[143,44],[2,262],[85,509],[329,598],[552,462],[584,204]]","false","7","main_T2_Trial","s","img/Fire_Down_Target.gif","[""img/Fire_Up_Distractor.gif"",""img/Fire_Up_Distractor.gif"",""img/Fire_Up_Distractor.gif"",""img/Fire_Up_Distractor.gif"",""img/Fire_Up_Distractor.gif"",""img/Fire_Up_Distractor.gif"",""img/Fire_Up_Distractor.gif"",""img/Fire_Up_Distractor.gif"",""img/Fire_Up_Distractor.gif"",""img/Fire_Up_Distractor.gif"",""img/Fire_Up_Distractor.gif"",""img/Fire_Up_Distractor.gif""]","7","targetDown_distractorsUp"
"","","","","","html-keyboard-response","210","359641","0.0-14.0-0.0-0.98","5f983f3b00bbab0c4b28149a","619531dcf66c91622fa1b861","6195a2161d2e6fc9ed9c4f4b","null","","null","","","","","main_T1_ITI","","","","",""
"","","","","","visual-search-circle","211","361431","0.0-14.0-0.0-1.98","5f983f3b00bbab0c4b28149a","619531dcf66c91622fa1b861","6195a2161d2e6fc9ed9c4f4b","786.5","","s","false","[[37,445],[445,562],[562,154],[154,37]]","true","4","main_T2_Trial","d","img/Fire_Down_Target.gif","[""img/Fire_Up_Distractor.gif"",""img/Fire_Up_Distractor.gif"",""img/Fire_Up_Distractor.gif"",""img/Fire_Up_Distractor.gif"",""img/Fire_Up_Distractor.gif"",""img/Fire_Up_Distractor.gif"",""img/Fire_Up_Distractor.gif"",""img/Fire_Up_Distractor.gif"",""img/Fire_Up_Distractor.gif"",""img/Fire_Up_Distractor.gif"",""img/Fire_Up_Distractor.gif"",""img/Fire_Up_Distractor.gif""]","4","targetDown_distractorsUp"
"","","","","","html-keyboard-response","212","367618","0.0-14.0-0.0-0.99","5f983f3b00bbab0c4b28149a","619531dcf66c91622fa1b861","6195a2161d2e6fc9ed9c4f4b","6186.299999982119","Wow! You've completed 100 out of 160 trials! </p> <p>  </p><p> Take a quick break, then press any key when you're ready to continue.","s","","","","","main_T1_ITI","","","","",""
"","","","","","visual-search-circle","213","369333","0.0-14.0-0.0-1.99","5f983f3b00bbab0c4b28149a","619531dcf66c91622fa1b861","6195a2161d2e6fc9ed9c4f4b","704.8999999761581","","d","true","[[529,492],[594,240],[436,33],[176,26],[9,225],[60,481],[292,599]]","true","7","main_T2_Trial","d","img/Fire_Up_Target.gif","[""img/Fire_Down_Distractor.gif"",""img/Fire_Down_Distractor.gif"",""img/Fire_Down_Distractor.gif"",""img/Fire_Down_Distractor.gif"",""img/Fire_Down_Distractor.gif"",""img/Fire_Down_Distractor.gif"",""img/Fire_Down_Distractor.gif"",""img/Fire_Down_Distractor.gif"",""img/Fire_Down_Distractor.gif"",""img/Fire_Down_Distractor.gif"",""img/Fire_Down_Distractor.gif"",""img/Fire_Down_Distractor.gif""]","7","targetUp_distractorsDown"
"","","","","","html-keyboard-response","214","369335","0.0-14.0-0.0-0.100","5f983f3b00bbab0c4b28149a","619531dcf66c91622fa1b861","6195a2161d2e6fc9ed9c4f4b","null","","null","","","","","main_T1_ITI","","","","",""
"","","","","","visual-search-circle","215","371099","0.0-14.0-0.0-1.100","5f983f3b00bbab0c4b28149a","619531dcf66c91622fa1b861","6195a2161d2e6fc9ed9c4f4b","758","","d","true","[[504,80],[212,13],[7,232],[95,519],[387,586],[592,367]]","true","6","main_T2_Trial","d","img/Fire_Down_Target.gif","[""img/Fire_Up_Distractor.gif"",""img/Fire_Up_Distractor.gif"",""img/Fire_Up_Distractor.gif"",""img/Fire_Up_Distractor.gif"",""img/Fire_Up_Distractor.gif"",""img/Fire_Up_Distractor.gif"",""img/Fire_Up_Distractor.gif"",""img/Fire_Up_Distractor.gif"",""img/Fire_Up_Distractor.gif"",""img/Fire_Up_Distractor.gif"",""img/Fire_Up_Distractor.gif"",""img/Fire_Up_Distractor.gif""]","6","targetDown_distractorsUp"
"","","","","","html-keyboard-response","216","371101","0.0-14.0-0.0-0.101","5f983f3b00bbab0c4b28149a","619531dcf66c91622fa1b861","6195a2161d2e6fc9ed9c4f4b","null","","null","","","","","main_T1_ITI","","","","",""
