"success","timeout","failed_images","failed_audio","failed_video","trial_type","trial_index","time_elapsed","internal_node_id","subject_id","study_id","session_id","rt","stimulus","response","correct","locations","target_present","set_size","task","correct_response","target","foilCM","setSizeCM","searchCondition"
"true","false","[]","[]","[]","preload","0","9590","0.0-0.0","5fa4a785e741ed1577d6a4f6","619531dcf66c91622fa1b861","6195961d8483eed60ad8664b","","","","","","","","","","","","",""
"true","","","","","fullscreen","1","329721","0.0-1.0","5fa4a785e741ed1577d6a4f6","619531dcf66c91622fa1b861","6195961d8483eed60ad8664b","","","","","","","","","","","","",""
"","","","","","html-keyboard-response","2","344228","0.0-2.0","5fa4a785e741ed1577d6a4f6","619531dcf66c91622fa1b861","6195961d8483eed60ad8664b","14506","What a beautiful Wednesday to do some awesome science! </p> <p>  </p><p> </p>
    By completing this survey or questionnaire, you are consenting to be in this research study. </p>
    Your participation is voluntary and you can stop at any time.
    <p> [Press any key to continue.] </p>
    
    "," ","","","","","","","","","",""
"","","","","","video-keyboard-response","3","398356","0.0-3.0","5fa4a785e741ed1577d6a4f6","619531dcf66c91622fa1b861","6195961d8483eed60ad8664b","54122.40000000037","[""video/TaskInstructions.mp4""]"," ","","","","","","","","","",""
"","","","","","html-keyboard-response","4","402813","0.0-4.0","5fa4a785e741ed1577d6a4f6","619531dcf66c91622fa1b861","6195961d8483eed60ad8664b","4456.4000000003725","
    <p>First, we're going to do a few practice trials to make sure you understand the task. You will recieve feedback on each trial. </p>
    <p>[Press any key to begin the familiarization phase.]</p>
    "," ","","","","","","","","","",""
"","","","","","visual-search-circle","5","413919","0.0-5.0-0.0","5fa4a785e741ed1577d6a4f6","619531dcf66c91622fa1b861","6195961d8483eed60ad8664b","10031.400000000373","","d","true","[[529,492],[492,70],[70,107],[107,529]]","true","4","training","d","","","",""
"","","","","","html-keyboard-response","6","416851","0.0-6.0","5fa4a785e741ed1577d6a4f6","619531dcf66c91622fa1b861","6195961d8483eed60ad8664b","2931.699999999255"," <div style='float: center; '><img src='img/feedbackRight.png'></img> </div> "," ","","","","","","","","","",""
"","","","","","visual-search-circle","7","419179","0.0-7.0-0.0","5fa4a785e741ed1577d6a4f6","619531dcf66c91622fa1b861","6195961d8483eed60ad8664b","1322.2999999988824","","s","true","[[107,529],[529,492],[492,70],[70,107]]","false","4","training","s","","","",""
"","","","","","html-keyboard-response","8","420304","0.0-8.0","5fa4a785e741ed1577d6a4f6","619531dcf66c91622fa1b861","6195961d8483eed60ad8664b","1124.6000000014901"," <div style='float: center; '><img src='img/feedbackRight.png'></img> </div> "," ","","","","","","","","","",""
"","","","","","visual-search-circle","9","423149","0.0-9.0-0.0","5fa4a785e741ed1577d6a4f6","619531dcf66c91622fa1b861","6195961d8483eed60ad8664b","1838.5999999996275","","s","true","[[315,0],[48,136],[32,436],[284,599],[551,463],[567,163]]","false","6","training","s","","","",""
"","","","","","html-keyboard-response","10","423689","0.0-10.0","5fa4a785e741ed1577d6a4f6","619531dcf66c91622fa1b861","6195961d8483eed60ad8664b","539.5"," <div style='float: center; '><img src='img/feedbackRight.png'></img> </div> "," ","","","","","","","","","",""
"","","","","","visual-search-circle","11","425944","0.0-11.0-0.0","5fa4a785e741ed1577d6a4f6","619531dcf66c91622fa1b861","6195961d8483eed60ad8664b","1239.5","","d","true","[[227,8],[42,145],[8,372],[145,557],[372,591],[557,454],[591,227],[454,42]]","true","8","training","d","","","",""
"","","","","","html-keyboard-response","12","426472","0.0-12.0","5fa4a785e741ed1577d6a4f6","619531dcf66c91622fa1b861","6195961d8483eed60ad8664b","527.4000000003725"," <div style='float: center; '><img src='img/feedbackRight.png'></img> </div> "," ","","","","","","","","","",""
"","","","","","video-keyboard-response","13","428268","0.0-13.0","5fa4a785e741ed1577d6a4f6","619531dcf66c91622fa1b861","6195961d8483eed60ad8664b","1795.199999999255","[""video/endTraining.mp4""]"," ","","","","","","","","","",""
"","","","","","html-keyboard-response","14","428270","0.0-14.0-0.0-0.0","5fa4a785e741ed1577d6a4f6","619531dcf66c91622fa1b861","6195961d8483eed60ad8664b","null","","null","","","","","main_T1_ITI","","","","",""
"","","","","","visual-search-circle","15","430918","0.0-14.0-0.0-1.0","5fa4a785e741ed1577d6a4f6","619531dcf66c91622fa1b861","6195961d8483eed60ad8664b","1632.699999999255","","s","true","[[305,0],[68,108],[6,361],[165,567],[425,572],[591,371],[537,117]]","false","7","main_T2_Trial","s","img/Fire_Up_Target.gif","[""img/Fire_Down_Distractor.gif"",""img/Fire_Down_Distractor.gif"",""img/Fire_Down_Distractor.gif"",""img/Fire_Down_Distractor.gif"",""img/Fire_Down_Distractor.gif"",""img/Fire_Down_Distractor.gif"",""img/Fire_Down_Distractor.gif"",""img/Fire_Down_Distractor.gif"",""img/Fire_Down_Distractor.gif"",""img/Fire_Down_Distractor.gif"",""img/Fire_Down_Distractor.gif"",""img/Fire_Down_Distractor.gif""]","7","targetUp_distractorsDown"
"","","","","","html-keyboard-response","16","430920","0.0-14.0-0.0-0.1","5fa4a785e741ed1577d6a4f6","619531dcf66c91622fa1b861","6195961d8483eed60ad8664b","null","","null","","","","","main_T1_ITI","","","","",""
"","","","","","visual-search-circle","17","432698","0.0-14.0-0.0-1.1","5fa4a785e741ed1577d6a4f6","619531dcf66c91622fa1b861","6195961d8483eed60ad8664b","774.1000000014901","","d","true","[[202,16],[5,242],[103,526],[397,583],[594,357],[496,73]]","true","6","main_T2_Trial","d","img/Fire_Down_Target.gif","[""img/Fire_Up_Distractor.gif"",""img/Fire_Up_Distractor.gif"",""img/Fire_Up_Distractor.gif"",""img/Fire_Up_Distractor.gif"",""img/Fire_Up_Distractor.gif"",""img/Fire_Up_Distractor.gif"",""img/Fire_Up_Distractor.gif"",""img/Fire_Up_Distractor.gif"",""img/Fire_Up_Distractor.gif"",""img/Fire_Up_Distractor.gif"",""img/Fire_Up_Distractor.gif"",""img/Fire_Up_Distractor.gif""]","6","targetDown_distractorsUp"
"","","","","","html-keyboard-response","18","432700","0.0-14.0-0.0-0.2","5fa4a785e741ed1577d6a4f6","619531dcf66c91622fa1b861","6195961d8483eed60ad8664b","null","","null","","","","","main_T1_ITI","","","","",""
"","","","","","visual-search-circle","19","434550","0.0-14.0-0.0-1.2","5fa4a785e741ed1577d6a4f6","619531dcf66c91622fa1b861","6195961d8483eed60ad8664b","838.5","","s","true","[[571,173],[173,28],[28,426],[426,571]]","false","4","main_T2_Trial","s","img/Fire_Up_Target.gif","[""img/Fire_Down_Distractor.gif"",""img/Fire_Down_Distractor.gif"",""img/Fire_Down_Distractor.gif"",""img/Fire_Down_Distractor.gif"",""img/Fire_Down_Distractor.gif"",""img/Fire_Down_Distractor.gif"",""img/Fire_Down_Distractor.gif"",""img/Fire_Down_Distractor.gif"",""img/Fire_Down_Distractor.gif"",""img/Fire_Down_Distractor.gif"",""img/Fire_Down_Distractor.gif"",""img/Fire_Down_Distractor.gif""]","4","targetUp_distractorsDown"
"","","","","","html-keyboard-response","20","434552","0.0-14.0-0.0-0.3","5fa4a785e741ed1577d6a4f6","619531dcf66c91622fa1b861","6195961d8483eed60ad8664b","null","","null","","","","","main_T1_ITI","","","","",""
"","","","","","visual-search-circle","21","436382","0.0-14.0-0.0-1.3","5fa4a785e741ed1577d6a4f6","619531dcf66c91622fa1b861","6195961d8483eed60ad8664b","818.4000000003725","","d","true","[[242,594],[467,548],[594,357],[548,132],[357,5],[132,51],[5,242],[51,467]]","true","8","main_T2_Trial","d","img/Fire_Up_Target.gif","[""img/Fire_Down_Distractor.gif"",""img/Fire_Down_Distractor.gif"",""img/Fire_Down_Distractor.gif"",""img/Fire_Down_Distractor.gif"",""img/Fire_Down_Distractor.gif"",""img/Fire_Down_Distractor.gif"",""img/Fire_Down_Distractor.gif"",""img/Fire_Down_Distractor.gif"",""img/Fire_Down_Distractor.gif"",""img/Fire_Down_Distractor.gif"",""img/Fire_Down_Distractor.gif"",""img/Fire_Down_Distractor.gif""]","8","targetUp_distractorsDown"
"","","","","","html-keyboard-response","22","436383","0.0-14.0-0.0-0.4","5fa4a785e741ed1577d6a4f6","619531dcf66c91622fa1b861","6195961d8483eed60ad8664b","null","","null","","","","","main_T1_ITI","","","","",""
"","","","","","visual-search-circle","23","438266","0.0-14.0-0.0-1.4","5fa4a785e741ed1577d6a4f6","619531dcf66c91622fa1b861","6195961d8483eed60ad8664b","871.3999999985099","","s","true","[[533,488],[598,268],[488,66],[268,1],[66,111],[1,331],[111,533],[331,598]]","false","8","main_T2_Trial","s","img/Fire_Up_Target.gif","[""img/Fire_Down_Distractor.gif"",""img/Fire_Down_Distractor.gif"",""img/Fire_Down_Distractor.gif"",""img/Fire_Down_Distractor.gif"",""img/Fire_Down_Distractor.gif"",""img/Fire_Down_Distractor.gif"",""img/Fire_Down_Distractor.gif"",""img/Fire_Down_Distractor.gif"",""img/Fire_Down_Distractor.gif"",""img/Fire_Down_Distractor.gif"",""img/Fire_Down_Distractor.gif"",""img/Fire_Down_Distractor.gif""]","8","targetUp_distractorsDown"
"","","","","","html-keyboard-response","24","438268","0.0-14.0-0.0-0.5","5fa4a785e741ed1577d6a4f6","619531dcf66c91622fa1b861","6195961d8483eed60ad8664b","null","","null","","","","","main_T1_ITI","","","","",""
"","","","","","visual-search-circle","25","440346","0.0-14.0-0.0-1.5","5fa4a785e741ed1577d6a4f6","619531dcf66c91622fa1b861","6195961d8483eed60ad8664b","1075.6000000014901","","d","true","[[463,48],[48,136],[136,551],[551,463]]","true","4","main_T2_Trial","d","img/Fire_Down_Target.gif","[""img/Fire_Up_Distractor.gif"",""img/Fire_Up_Distractor.gif"",""img/Fire_Up_Distractor.gif"",""img/Fire_Up_Distractor.gif"",""img/Fire_Up_Distractor.gif"",""img/Fire_Up_Distractor.gif"",""img/Fire_Up_Distractor.gif"",""img/Fire_Up_Distractor.gif"",""img/Fire_Up_Distractor.gif"",""img/Fire_Up_Distractor.gif"",""img/Fire_Up_Distractor.gif"",""img/Fire_Up_Distractor.gif""]","4","targetDown_distractorsUp"
"","","","","","html-keyboard-response","26","440348","0.0-14.0-0.0-0.6","5fa4a785e741ed1577d6a4f6","619531dcf66c91622fa1b861","6195961d8483eed60ad8664b","null","","null","","","","","main_T1_ITI","","","","",""
"","","","","","visual-search-circle","27","442116","0.0-14.0-0.0-1.6","5fa4a785e741ed1577d6a4f6","619531dcf66c91622fa1b861","6195961d8483eed60ad8664b","764.8999999985099","","d","true","[[66,111],[7,364],[167,569],[428,571],[591,368],[535,114],[302,0]]","true","7","main_T2_Trial","d","img/Fire_Down_Target.gif","[""img/Fire_Up_Distractor.gif"",""img/Fire_Up_Distractor.gif"",""img/Fire_Up_Distractor.gif"",""img/Fire_Up_Distractor.gif"",""img/Fire_Up_Distractor.gif"",""img/Fire_Up_Distractor.gif"",""img/Fire_Up_Distractor.gif"",""img/Fire_Up_Distractor.gif"",""img/Fire_Up_Distractor.gif"",""img/Fire_Up_Distractor.gif"",""img/Fire_Up_Distractor.gif"",""img/Fire_Up_Distractor.gif""]","7","targetDown_distractorsUp"
"","","","","","html-keyboard-response","28","442121","0.0-14.0-0.0-0.7","5fa4a785e741ed1577d6a4f6","619531dcf66c91622fa1b861","6195961d8483eed60ad8664b","null","","null","","","","","main_T1_ITI","","","","",""
"","","","","","visual-search-circle","29","443922","0.0-14.0-0.0-1.7","5fa4a785e741ed1577d6a4f6","619531dcf66c91622fa1b861","6195961d8483eed60ad8664b","782.5999999996275","","s","true","[[173,28],[18,197],[28,426],[197,581],[426,571],[581,402],[571,173],[402,18]]","false","8","main_T2_Trial","s","img/Fire_Down_Target.gif","[""img/Fire_Up_Distractor.gif"",""img/Fire_Up_Distractor.gif"",""img/Fire_Up_Distractor.gif"",""img/Fire_Up_Distractor.gif"",""img/Fire_Up_Distractor.gif"",""img/Fire_Up_Distractor.gif"",""img/Fire_Up_Distractor.gif"",""img/Fire_Up_Distractor.gif"",""img/Fire_Up_Distractor.gif"",""img/Fire_Up_Distractor.gif"",""img/Fire_Up_Distractor.gif"",""img/Fire_Up_Distractor.gif""]","8","targetDown_distractorsUp"
"","","","","","html-keyboard-response","30","443924","0.0-14.0-0.0-0.8","5fa4a785e741ed1577d6a4f6","619531dcf66c91622fa1b861","6195961d8483eed60ad8664b","null","","null","","","","","main_T1_ITI","","","","",""
"","","","","","visual-search-circle","31","445633","0.0-14.0-0.0-1.8","5fa4a785e741ed1577d6a4f6","619531dcf66c91622fa1b861","6195961d8483eed60ad8664b","703.6999999992549","","s","true","[[542,476],[476,57],[57,123],[123,542]]","false","4","main_T2_Trial","s","img/Fire_Down_Target.gif","[""img/Fire_Up_Distractor.gif"",""img/Fire_Up_Distractor.gif"",""img/Fire_Up_Distractor.gif"",""img/Fire_Up_Distractor.gif"",""img/Fire_Up_Distractor.gif"",""img/Fire_Up_Distractor.gif"",""img/Fire_Up_Distractor.gif"",""img/Fire_Up_Distractor.gif"",""img/Fire_Up_Distractor.gif"",""img/Fire_Up_Distractor.gif"",""img/Fire_Up_Distractor.gif"",""img/Fire_Up_Distractor.gif""]","4","targetDown_distractorsUp"
"","","","","","html-keyboard-response","32","445634","0.0-14.0-0.0-0.9","5fa4a785e741ed1577d6a4f6","619531dcf66c91622fa1b861","6195961d8483eed60ad8664b","null","","null","","","","","main_T1_ITI","","","","",""
"","","","","","visual-search-circle","33","447418","0.0-14.0-0.0-1.9","5fa4a785e741ed1577d6a4f6","619531dcf66c91622fa1b861","6195961d8483eed60ad8664b","774.5999999996275","","s","true","[[529,107],[292,0],[60,118],[9,374],[176,573],[436,566],[594,359]]","false","7","main_T2_Trial","s","img/Fire_Down_Target.gif","[""img/Fire_Up_Distractor.gif"",""img/Fire_Up_Distractor.gif"",""img/Fire_Up_Distractor.gif"",""img/Fire_Up_Distractor.gif"",""img/Fire_Up_Distractor.gif"",""img/Fire_Up_Distractor.gif"",""img/Fire_Up_Distractor.gif"",""img/Fire_Up_Distractor.gif"",""img/Fire_Up_Distractor.gif"",""img/Fire_Up_Distractor.gif"",""img/Fire_Up_Distractor.gif"",""img/Fire_Up_Distractor.gif""]","7","targetDown_distractorsUp"
"","","","","","html-keyboard-response","34","447420","0.0-14.0-0.0-0.10","5fa4a785e741ed1577d6a4f6","619531dcf66c91622fa1b861","6195961d8483eed60ad8664b","null","","null","","","","","main_T1_ITI","","","","",""
"","","","","","visual-search-circle","35","449506","0.0-14.0-0.0-1.10","5fa4a785e741ed1577d6a4f6","619531dcf66c91622fa1b861","6195961d8483eed60ad8664b","1072.8999999985099","","s","true","[[40,450],[362,593],[598,331],[422,25],[77,99]]","false","5","main_T2_Trial","s","img/Fire_Up_Target.gif","[""img/Fire_Down_Distractor.gif"",""img/Fire_Down_Distractor.gif"",""img/Fire_Down_Distractor.gif"",""img/Fire_Down_Distractor.gif"",""img/Fire_Down_Distractor.gif"",""img/Fire_Down_Distractor.gif"",""img/Fire_Down_Distractor.gif"",""img/Fire_Down_Distractor.gif"",""img/Fire_Down_Distractor.gif"",""img/Fire_Down_Distractor.gif"",""img/Fire_Down_Distractor.gif"",""img/Fire_Down_Distractor.gif""]","5","targetUp_distractorsDown"
"","","","","","html-keyboard-response","36","449509","0.0-14.0-0.0-0.11","5fa4a785e741ed1577d6a4f6","619531dcf66c91622fa1b861","6195961d8483eed60ad8664b","null","","null","","","","","main_T1_ITI","","","","",""
"","","","","","visual-search-circle","37","451137","0.0-14.0-0.0-1.11","5fa4a785e741ed1577d6a4f6","619531dcf66c91622fa1b861","6195961d8483eed60ad8664b","625.8000000007451","","d","true","[[458,45],[45,141],[141,554],[554,458]]","true","4","main_T2_Trial","d","img/Fire_Down_Target.gif","[""img/Fire_Up_Distractor.gif"",""img/Fire_Up_Distractor.gif"",""img/Fire_Up_Distractor.gif"",""img/Fire_Up_Distractor.gif"",""img/Fire_Up_Distractor.gif"",""img/Fire_Up_Distractor.gif"",""img/Fire_Up_Distractor.gif"",""img/Fire_Up_Distractor.gif"",""img/Fire_Up_Distractor.gif"",""img/Fire_Up_Distractor.gif"",""img/Fire_Up_Distractor.gif"",""img/Fire_Up_Distractor.gif""]","4","targetDown_distractorsUp"
"","","","","","html-keyboard-response","38","451145","0.0-14.0-0.0-0.12","5fa4a785e741ed1577d6a4f6","619531dcf66c91622fa1b861","6195961d8483eed60ad8664b","null","","null","","","","","main_T1_ITI","","","","",""
"","","","","","visual-search-circle","39","453960","0.0-14.0-0.0-1.12","5fa4a785e741ed1577d6a4f6","619531dcf66c91622fa1b861","6195961d8483eed60ad8664b","1811","","s","true","[[127,545],[352,595],[545,472],[595,247],[472,54],[247,4],[54,127],[4,352]]","false","8","main_T2_Trial","s","img/Fire_Up_Target.gif","[""img/Fire_Down_Distractor.gif"",""img/Fire_Down_Distractor.gif"",""img/Fire_Down_Distractor.gif"",""img/Fire_Down_Distractor.gif"",""img/Fire_Down_Distractor.gif"",""img/Fire_Down_Distractor.gif"",""img/Fire_Down_Distractor.gif"",""img/Fire_Down_Distractor.gif"",""img/Fire_Down_Distractor.gif"",""img/Fire_Down_Distractor.gif"",""img/Fire_Down_Distractor.gif"",""img/Fire_Down_Distractor.gif""]","8","targetUp_distractorsDown"
"","","","","","html-keyboard-response","40","453961","0.0-14.0-0.0-0.13","5fa4a785e741ed1577d6a4f6","619531dcf66c91622fa1b861","6195961d8483eed60ad8664b","null","","null","","","","","main_T1_ITI","","","","",""
"","","","","","visual-search-circle","41","456218","0.0-14.0-0.0-1.13","5fa4a785e741ed1577d6a4f6","619531dcf66c91622fa1b861","6195961d8483eed60ad8664b","1248.5","","s","true","[[11,382],[184,577],[444,562],[595,350],[523,100],[283,0],[55,126]]","false","7","main_T2_Trial","s","img/Fire_Down_Target.gif","[""img/Fire_Up_Distractor.gif"",""img/Fire_Up_Distractor.gif"",""img/Fire_Up_Distractor.gif"",""img/Fire_Up_Distractor.gif"",""img/Fire_Up_Distractor.gif"",""img/Fire_Up_Distractor.gif"",""img/Fire_Up_Distractor.gif"",""img/Fire_Up_Distractor.gif"",""img/Fire_Up_Distractor.gif"",""img/Fire_Up_Distractor.gif"",""img/Fire_Up_Distractor.gif"",""img/Fire_Up_Distractor.gif""]","7","targetDown_distractorsUp"
"","","","","","html-keyboard-response","42","456220","0.0-14.0-0.0-0.14","5fa4a785e741ed1577d6a4f6","619531dcf66c91622fa1b861","6195961d8483eed60ad8664b","null","","null","","","","","main_T1_ITI","","","","",""
"","","","","","visual-search-circle","43","458700","0.0-14.0-0.0-1.14","5fa4a785e741ed1577d6a4f6","619531dcf66c91622fa1b861","6195961d8483eed60ad8664b","1462.7000000011176","","d","false","[[315,0],[99,77],[0,284],[77,500],[284,599],[500,522],[599,315],[522,99]]","false","8","main_T2_Trial","s","img/Fire_Down_Target.gif","[""img/Fire_Up_Distractor.gif"",""img/Fire_Up_Distractor.gif"",""img/Fire_Up_Distractor.gif"",""img/Fire_Up_Distractor.gif"",""img/Fire_Up_Distractor.gif"",""img/Fire_Up_Distractor.gif"",""img/Fire_Up_Distractor.gif"",""img/Fire_Up_Distractor.gif"",""img/Fire_Up_Distractor.gif"",""img/Fire_Up_Distractor.gif"",""img/Fire_Up_Distractor.gif"",""img/Fire_Up_Distractor.gif""]","8","targetDown_distractorsUp"
"","","","","","html-keyboard-response","44","458702","0.0-14.0-0.0-0.15","5fa4a785e741ed1577d6a4f6","619531dcf66c91622fa1b861","6195961d8483eed60ad8664b","null","","null","","","","","main_T1_ITI","","","","",""
"","","","","","visual-search-circle","45","462655","0.0-14.0-0.0-1.15","5fa4a785e741ed1577d6a4f6","619531dcf66c91622fa1b861","6195961d8483eed60ad8664b","2951","","s","true","[[54,127],[127,545],[545,472],[472,54]]","false","4","main_T2_Trial","s","img/Fire_Down_Target.gif","[""img/Fire_Up_Distractor.gif"",""img/Fire_Up_Distractor.gif"",""img/Fire_Up_Distractor.gif"",""img/Fire_Up_Distractor.gif"",""img/Fire_Up_Distractor.gif"",""img/Fire_Up_Distractor.gif"",""img/Fire_Up_Distractor.gif"",""img/Fire_Up_Distractor.gif"",""img/Fire_Up_Distractor.gif"",""img/Fire_Up_Distractor.gif"",""img/Fire_Up_Distractor.gif"",""img/Fire_Up_Distractor.gif""]","4","targetDown_distractorsUp"
"","","","","","html-keyboard-response","46","462656","0.0-14.0-0.0-0.16","5fa4a785e741ed1577d6a4f6","619531dcf66c91622fa1b861","6195961d8483eed60ad8664b","null","","null","","","","","main_T1_ITI","","","","",""
"","","","","","visual-search-circle","47","464928","0.0-14.0-0.0-1.16","5fa4a785e741ed1577d6a4f6","619531dcf66c91622fa1b861","6195961d8483eed60ad8664b","1259.7000000011176","","d","false","[[492,529],[578,187],[279,0],[8,227],[141,554]]","false","5","main_T2_Trial","s","img/Fire_Down_Target.gif","[""img/Fire_Up_Distractor.gif"",""img/Fire_Up_Distractor.gif"",""img/Fire_Up_Distractor.gif"",""img/Fire_Up_Distractor.gif"",""img/Fire_Up_Distractor.gif"",""img/Fire_Up_Distractor.gif"",""img/Fire_Up_Distractor.gif"",""img/Fire_Up_Distractor.gif"",""img/Fire_Up_Distractor.gif"",""img/Fire_Up_Distractor.gif"",""img/Fire_Up_Distractor.gif"",""img/Fire_Up_Distractor.gif""]","5","targetDown_distractorsUp"
"","","","","","html-keyboard-response","48","464930","0.0-14.0-0.0-0.17","5fa4a785e741ed1577d6a4f6","619531dcf66c91622fa1b861","6195961d8483eed60ad8664b","null","","null","","","","","main_T1_ITI","","","","",""
"","","","","","visual-search-circle","49","466726","0.0-14.0-0.0-1.17","5fa4a785e741ed1577d6a4f6","619531dcf66c91622fa1b861","6195961d8483eed60ad8664b","793.3999999985099","","d","true","[[4,352],[258,597],[569,431],[508,84],[159,35]]","true","5","main_T2_Trial","d","img/Fire_Down_Target.gif","[""img/Fire_Up_Distractor.gif"",""img/Fire_Up_Distractor.gif"",""img/Fire_Up_Distractor.gif"",""img/Fire_Up_Distractor.gif"",""img/Fire_Up_Distractor.gif"",""img/Fire_Up_Distractor.gif"",""img/Fire_Up_Distractor.gif"",""img/Fire_Up_Distractor.gif"",""img/Fire_Up_Distractor.gif"",""img/Fire_Up_Distractor.gif"",""img/Fire_Up_Distractor.gif"",""img/Fire_Up_Distractor.gif""]","5","targetDown_distractorsUp"
"","","","","","html-keyboard-response","50","466727","0.0-14.0-0.0-0.18","5fa4a785e741ed1577d6a4f6","619531dcf66c91622fa1b861","6195961d8483eed60ad8664b","null","","null","","","","","main_T1_ITI","","","","",""
"","","","","","visual-search-circle","51","469242","0.0-14.0-0.0-1.18","5fa4a785e741ed1577d6a4f6","619531dcf66c91622fa1b861","6195961d8483eed60ad8664b","1506.0999999996275","","s","true","[[168,569],[515,508],[564,159],[247,4],[2,258]]","false","5","main_T2_Trial","s","img/Fire_Up_Target.gif","[""img/Fire_Down_Distractor.gif"",""img/Fire_Down_Distractor.gif"",""img/Fire_Down_Distractor.gif"",""img/Fire_Down_Distractor.gif"",""img/Fire_Down_Distractor.gif"",""img/Fire_Down_Distractor.gif"",""img/Fire_Down_Distractor.gif"",""img/Fire_Down_Distractor.gif"",""img/Fire_Down_Distractor.gif"",""img/Fire_Down_Distractor.gif"",""img/Fire_Down_Distractor.gif"",""img/Fire_Down_Distractor.gif""]","5","targetUp_distractorsDown"
"","","","","","html-keyboard-response","52","474327","0.0-14.0-0.0-0.19","5fa4a785e741ed1577d6a4f6","619531dcf66c91622fa1b861","6195961d8483eed60ad8664b","5084.700000001118","Wow! You've completed 20 out of 160 trials! </p> <p>  </p><p> Take a quick break, then press any key when you're ready to continue."," ","","","","","main_T1_ITI","","","","",""
"","","","","","visual-search-circle","53","476260","0.0-14.0-0.0-1.19","5fa4a785e741ed1577d6a4f6","619531dcf66c91622fa1b861","6195961d8483eed60ad8664b","927.5","","d","true","[[476,57],[220,10],[24,182],[35,442],[246,595],[497,525],[599,286]]","true","7","main_T2_Trial","d","img/Fire_Down_Target.gif","[""img/Fire_Up_Distractor.gif"",""img/Fire_Up_Distractor.gif"",""img/Fire_Up_Distractor.gif"",""img/Fire_Up_Distractor.gif"",""img/Fire_Up_Distractor.gif"",""img/Fire_Up_Distractor.gif"",""img/Fire_Up_Distractor.gif"",""img/Fire_Up_Distractor.gif"",""img/Fire_Up_Distractor.gif"",""img/Fire_Up_Distractor.gif"",""img/Fire_Up_Distractor.gif"",""img/Fire_Up_Distractor.gif""]","7","targetDown_distractorsUp"
"","","","","","html-keyboard-response","54","476261","0.0-14.0-0.0-0.20","5fa4a785e741ed1577d6a4f6","619531dcf66c91622fa1b861","6195961d8483eed60ad8664b","null","","null","","","","","main_T1_ITI","","","","",""
"","","","","","visual-search-circle","55","478352","0.0-14.0-0.0-1.20","5fa4a785e741ed1577d6a4f6","619531dcf66c91622fa1b861","6195961d8483eed60ad8664b","1076.5","","s","false","[[588,382],[467,51],[115,63],[18,402],[310,599]]","true","5","main_T2_Trial","d","img/Fire_Up_Target.gif","[""img/Fire_Down_Distractor.gif"",""img/Fire_Down_Distractor.gif"",""img/Fire_Down_Distractor.gif"",""img/Fire_Down_Distractor.gif"",""img/Fire_Down_Distractor.gif"",""img/Fire_Down_Distractor.gif"",""img/Fire_Down_Distractor.gif"",""img/Fire_Down_Distractor.gif"",""img/Fire_Down_Distractor.gif"",""img/Fire_Down_Distractor.gif"",""img/Fire_Down_Distractor.gif"",""img/Fire_Down_Distractor.gif""]","5","targetUp_distractorsDown"
"","","","","","html-keyboard-response","56","478359","0.0-14.0-0.0-0.21","5fa4a785e741ed1577d6a4f6","619531dcf66c91622fa1b861","6195961d8483eed60ad8664b","null","","null","","","","","main_T1_ITI","","","","",""
"","","","","","visual-search-circle","57","480058","0.0-14.0-0.0-1.21","5fa4a785e741ed1577d6a4f6","619531dcf66c91622fa1b861","6195961d8483eed60ad8664b","684.9000000003725","","d","true","[[407,19],[66,111],[48,463],[377,589],[599,315]]","true","5","main_T2_Trial","d","img/Fire_Down_Target.gif","[""img/Fire_Up_Distractor.gif"",""img/Fire_Up_Distractor.gif"",""img/Fire_Up_Distractor.gif"",""img/Fire_Up_Distractor.gif"",""img/Fire_Up_Distractor.gif"",""img/Fire_Up_Distractor.gif"",""img/Fire_Up_Distractor.gif"",""img/Fire_Up_Distractor.gif"",""img/Fire_Up_Distractor.gif"",""img/Fire_Up_Distractor.gif"",""img/Fire_Up_Distractor.gif"",""img/Fire_Up_Distractor.gif""]","5","targetDown_distractorsUp"
"","","","","","html-keyboard-response","58","480060","0.0-14.0-0.0-0.22","5fa4a785e741ed1577d6a4f6","619531dcf66c91622fa1b861","6195961d8483eed60ad8664b","null","","null","","","","","main_T1_ITI","","","","",""
"","","","","","visual-search-circle","59","481849","0.0-14.0-0.0-1.22","5fa4a785e741ed1577d6a4f6","619531dcf66c91622fa1b861","6195961d8483eed60ad8664b","777.4000000003725","","s","false","[[107,70],[0,307],[118,539],[374,590],[573,423],[566,163],[359,5]]","true","7","main_T2_Trial","d","img/Fire_Up_Target.gif","[""img/Fire_Down_Distractor.gif"",""img/Fire_Down_Distractor.gif"",""img/Fire_Down_Distractor.gif"",""img/Fire_Down_Distractor.gif"",""img/Fire_Down_Distractor.gif"",""img/Fire_Down_Distractor.gif"",""img/Fire_Down_Distractor.gif"",""img/Fire_Down_Distractor.gif"",""img/Fire_Down_Distractor.gif"",""img/Fire_Down_Distractor.gif"",""img/Fire_Down_Distractor.gif"",""img/Fire_Down_Distractor.gif""]","7","targetUp_distractorsDown"
"","","","","","html-keyboard-response","60","481851","0.0-14.0-0.0-0.23","5fa4a785e741ed1577d6a4f6","619531dcf66c91622fa1b861","6195961d8483eed60ad8664b","null","","null","","","","","main_T1_ITI","","","","",""
"","","","","","visual-search-circle","61","484191","0.0-14.0-0.0-1.23","5fa4a785e741ed1577d6a4f6","619531dcf66c91622fa1b861","6195961d8483eed60ad8664b","1330.9000000003725","","s","false","[[3,346],[346,596],[596,253],[253,3]]","true","4","main_T2_Trial","d","img/Fire_Up_Target.gif","[""img/Fire_Down_Distractor.gif"",""img/Fire_Down_Distractor.gif"",""img/Fire_Down_Distractor.gif"",""img/Fire_Down_Distractor.gif"",""img/Fire_Down_Distractor.gif"",""img/Fire_Down_Distractor.gif"",""img/Fire_Down_Distractor.gif"",""img/Fire_Down_Distractor.gif"",""img/Fire_Down_Distractor.gif"",""img/Fire_Down_Distractor.gif"",""img/Fire_Down_Distractor.gif"",""img/Fire_Down_Distractor.gif""]","4","targetUp_distractorsDown"
"","","","","","html-keyboard-response","62","484202","0.0-14.0-0.0-0.24","5fa4a785e741ed1577d6a4f6","619531dcf66c91622fa1b861","6195961d8483eed60ad8664b","null","","null","","","","","main_T1_ITI","","","","",""
"","","","","","visual-search-circle","63","486022","0.0-14.0-0.0-1.24","5fa4a785e741ed1577d6a4f6","619531dcf66c91622fa1b861","6195961d8483eed60ad8664b","815.6999999992549","","s","false","[[372,591],[572,424],[567,164],[360,6],[108,69],[0,305],[117,538]]","true","7","main_T2_Trial","d","img/Fire_Up_Target.gif","[""img/Fire_Down_Distractor.gif"",""img/Fire_Down_Distractor.gif"",""img/Fire_Down_Distractor.gif"",""img/Fire_Down_Distractor.gif"",""img/Fire_Down_Distractor.gif"",""img/Fire_Down_Distractor.gif"",""img/Fire_Down_Distractor.gif"",""img/Fire_Down_Distractor.gif"",""img/Fire_Down_Distractor.gif"",""img/Fire_Down_Distractor.gif"",""img/Fire_Down_Distractor.gif"",""img/Fire_Down_Distractor.gif""]","7","targetUp_distractorsDown"
"","","","","","html-keyboard-response","64","486024","0.0-14.0-0.0-0.25","5fa4a785e741ed1577d6a4f6","619531dcf66c91622fa1b861","6195961d8483eed60ad8664b","null","","null","","","","","main_T1_ITI","","","","",""
"","","","","","visual-search-circle","65","488375","0.0-14.0-0.0-1.25","5fa4a785e741ed1577d6a4f6","619531dcf66c91622fa1b861","6195961d8483eed60ad8664b","1335.800000000745","","s","false","[[551,136],[329,1],[84,91],[2,338],[144,556],[403,581],[584,394]]","true","7","main_T2_Trial","d","img/Fire_Up_Target.gif","[""img/Fire_Down_Distractor.gif"",""img/Fire_Down_Distractor.gif"",""img/Fire_Down_Distractor.gif"",""img/Fire_Down_Distractor.gif"",""img/Fire_Down_Distractor.gif"",""img/Fire_Down_Distractor.gif"",""img/Fire_Down_Distractor.gif"",""img/Fire_Down_Distractor.gif"",""img/Fire_Down_Distractor.gif"",""img/Fire_Down_Distractor.gif"",""img/Fire_Down_Distractor.gif"",""img/Fire_Down_Distractor.gif""]","7","targetUp_distractorsDown"
"","","","","","html-keyboard-response","66","488376","0.0-14.0-0.0-0.26","5fa4a785e741ed1577d6a4f6","619531dcf66c91622fa1b861","6195961d8483eed60ad8664b","null","","null","","","","","main_T1_ITI","","","","",""
"","","","","","visual-search-circle","67","491459","0.0-14.0-0.0-1.26","5fa4a785e741ed1577d6a4f6","619531dcf66c91622fa1b861","6195961d8483eed60ad8664b","2075.4000000003725","","s","true","[[0,305],[154,562],[454,557],[599,294],[445,37],[145,42]]","false","6","main_T2_Trial","s","img/Fire_Down_Target.gif","[""img/Fire_Up_Distractor.gif"",""img/Fire_Up_Distractor.gif"",""img/Fire_Up_Distractor.gif"",""img/Fire_Up_Distractor.gif"",""img/Fire_Up_Distractor.gif"",""img/Fire_Up_Distractor.gif"",""img/Fire_Up_Distractor.gif"",""img/Fire_Up_Distractor.gif"",""img/Fire_Up_Distractor.gif"",""img/Fire_Up_Distractor.gif"",""img/Fire_Up_Distractor.gif"",""img/Fire_Up_Distractor.gif""]","6","targetDown_distractorsUp"
"","","","","","html-keyboard-response","68","491461","0.0-14.0-0.0-0.27","5fa4a785e741ed1577d6a4f6","619531dcf66c91622fa1b861","6195961d8483eed60ad8664b","null","","null","","","","","main_T1_ITI","","","","",""
"","","","","","visual-search-circle","69","493337","0.0-14.0-0.0-1.27","5fa4a785e741ed1577d6a4f6","619531dcf66c91622fa1b861","6195961d8483eed60ad8664b","867.5999999996275","","d","false","[[30,168],[168,569],[569,431],[431,30]]","false","4","main_T2_Trial","s","img/Fire_Up_Target.gif","[""img/Fire_Down_Distractor.gif"",""img/Fire_Down_Distractor.gif"",""img/Fire_Down_Distractor.gif"",""img/Fire_Down_Distractor.gif"",""img/Fire_Down_Distractor.gif"",""img/Fire_Down_Distractor.gif"",""img/Fire_Down_Distractor.gif"",""img/Fire_Down_Distractor.gif"",""img/Fire_Down_Distractor.gif"",""img/Fire_Down_Distractor.gif"",""img/Fire_Down_Distractor.gif"",""img/Fire_Down_Distractor.gif""]","4","targetUp_distractorsDown"
"","","","","","html-keyboard-response","70","493339","0.0-14.0-0.0-0.28","5fa4a785e741ed1577d6a4f6","619531dcf66c91622fa1b861","6195961d8483eed60ad8664b","null","","null","","","","","main_T1_ITI","","","","",""
"","","","","","visual-search-circle","71","495106","0.0-14.0-0.0-1.28","5fa4a785e741ed1577d6a4f6","619531dcf66c91622fa1b861","6195961d8483eed60ad8664b","756.4000000003725","","d","true","[[583,397],[569,168],[397,16],[168,30],[16,202],[30,431],[202,583],[431,569]]","true","8","main_T2_Trial","d","img/Fire_Up_Target.gif","[""img/Fire_Down_Distractor.gif"",""img/Fire_Down_Distractor.gif"",""img/Fire_Down_Distractor.gif"",""img/Fire_Down_Distractor.gif"",""img/Fire_Down_Distractor.gif"",""img/Fire_Down_Distractor.gif"",""img/Fire_Down_Distractor.gif"",""img/Fire_Down_Distractor.gif"",""img/Fire_Down_Distractor.gif"",""img/Fire_Down_Distractor.gif"",""img/Fire_Down_Distractor.gif"",""img/Fire_Down_Distractor.gif""]","8","targetUp_distractorsDown"
"","","","","","html-keyboard-response","72","495116","0.0-14.0-0.0-0.29","5fa4a785e741ed1577d6a4f6","619531dcf66c91622fa1b861","6195961d8483eed60ad8664b","null","","null","","","","","main_T1_ITI","","","","",""
"","","","","","visual-search-circle","73","497237","0.0-14.0-0.0-1.29","5fa4a785e741ed1577d6a4f6","619531dcf66c91622fa1b861","6195961d8483eed60ad8664b","1113.800000000745","","d","true","[[592,367],[504,80],[212,13],[7,232],[95,519],[387,586]]","true","6","main_T2_Trial","d","img/Fire_Down_Target.gif","[""img/Fire_Up_Distractor.gif"",""img/Fire_Up_Distractor.gif"",""img/Fire_Up_Distractor.gif"",""img/Fire_Up_Distractor.gif"",""img/Fire_Up_Distractor.gif"",""img/Fire_Up_Distractor.gif"",""img/Fire_Up_Distractor.gif"",""img/Fire_Up_Distractor.gif"",""img/Fire_Up_Distractor.gif"",""img/Fire_Up_Distractor.gif"",""img/Fire_Up_Distractor.gif"",""img/Fire_Up_Distractor.gif""]","6","targetDown_distractorsUp"
"","","","","","html-keyboard-response","74","497239","0.0-14.0-0.0-0.30","5fa4a785e741ed1577d6a4f6","619531dcf66c91622fa1b861","6195961d8483eed60ad8664b","null","","null","","","","","main_T1_ITI","","","","",""
"","","","","","visual-search-circle","75","498937","0.0-14.0-0.0-1.30","5fa4a785e741ed1577d6a4f6","619531dcf66c91622fa1b861","6195961d8483eed60ad8664b","683.9000000003725","","s","false","[[80,95],[0,310],[95,519],[310,599],[519,504],[599,289],[504,80],[289,0]]","true","8","main_T2_Trial","d","img/Fire_Up_Target.gif","[""img/Fire_Down_Distractor.gif"",""img/Fire_Down_Distractor.gif"",""img/Fire_Down_Distractor.gif"",""img/Fire_Down_Distractor.gif"",""img/Fire_Down_Distractor.gif"",""img/Fire_Down_Distractor.gif"",""img/Fire_Down_Distractor.gif"",""img/Fire_Down_Distractor.gif"",""img/Fire_Down_Distractor.gif"",""img/Fire_Down_Distractor.gif"",""img/Fire_Down_Distractor.gif"",""img/Fire_Down_Distractor.gif""]","8","targetUp_distractorsDown"
"","","","","","html-keyboard-response","76","498938","0.0-14.0-0.0-0.31","5fa4a785e741ed1577d6a4f6","619531dcf66c91622fa1b861","6195961d8483eed60ad8664b","null","","null","","","","","main_T1_ITI","","","","",""
"","","","","","visual-search-circle","77","500955","0.0-14.0-0.0-1.31","5fa4a785e741ed1577d6a4f6","619531dcf66c91622fa1b861","6195961d8483eed60ad8664b","1005.8000000007451","","s","true","[[542,476],[574,177],[331,1],[57,123],[25,422],[268,598]]","false","6","main_T2_Trial","s","img/Fire_Down_Target.gif","[""img/Fire_Up_Distractor.gif"",""img/Fire_Up_Distractor.gif"",""img/Fire_Up_Distractor.gif"",""img/Fire_Up_Distractor.gif"",""img/Fire_Up_Distractor.gif"",""img/Fire_Up_Distractor.gif"",""img/Fire_Up_Distractor.gif"",""img/Fire_Up_Distractor.gif"",""img/Fire_Up_Distractor.gif"",""img/Fire_Up_Distractor.gif"",""img/Fire_Up_Distractor.gif"",""img/Fire_Up_Distractor.gif""]","6","targetDown_distractorsUp"
"","","","","","html-keyboard-response","78","500958","0.0-14.0-0.0-0.32","5fa4a785e741ed1577d6a4f6","619531dcf66c91622fa1b861","6195961d8483eed60ad8664b","null","","null","","","","","main_T1_ITI","","","","",""
"","","","","","visual-search-circle","79","502798","0.0-14.0-0.0-1.32","5fa4a785e741ed1577d6a4f6","619531dcf66c91622fa1b861","6195961d8483eed60ad8664b","828.7000000011176","","s","false","[[515,91],[271,1],[48,135],[15,394],[195,581],[455,556],[597,338]]","true","7","main_T2_Trial","d","img/Fire_Up_Target.gif","[""img/Fire_Down_Distractor.gif"",""img/Fire_Down_Distractor.gif"",""img/Fire_Down_Distractor.gif"",""img/Fire_Down_Distractor.gif"",""img/Fire_Down_Distractor.gif"",""img/Fire_Down_Distractor.gif"",""img/Fire_Down_Distractor.gif"",""img/Fire_Down_Distractor.gif"",""img/Fire_Down_Distractor.gif"",""img/Fire_Down_Distractor.gif"",""img/Fire_Down_Distractor.gif"",""img/Fire_Down_Distractor.gif""]","7","targetUp_distractorsDown"
"","","","","","html-keyboard-response","80","502957","0.0-14.0-0.0-0.33","5fa4a785e741ed1577d6a4f6","619531dcf66c91622fa1b861","6195961d8483eed60ad8664b","null","","null","","","","","main_T1_ITI","","","","",""
"","","","","","visual-search-circle","81","504872","0.0-14.0-0.0-1.33","5fa4a785e741ed1577d6a4f6","619531dcf66c91622fa1b861","6195961d8483eed60ad8664b","911.5","","d","false","[[40,450],[362,593],[598,331],[422,25],[77,99]]","false","5","main_T2_Trial","s","img/Fire_Up_Target.gif","[""img/Fire_Down_Distractor.gif"",""img/Fire_Down_Distractor.gif"",""img/Fire_Down_Distractor.gif"",""img/Fire_Down_Distractor.gif"",""img/Fire_Down_Distractor.gif"",""img/Fire_Down_Distractor.gif"",""img/Fire_Down_Distractor.gif"",""img/Fire_Down_Distractor.gif"",""img/Fire_Down_Distractor.gif"",""img/Fire_Down_Distractor.gif"",""img/Fire_Down_Distractor.gif"",""img/Fire_Down_Distractor.gif""]","5","targetUp_distractorsDown"
"","","","","","html-keyboard-response","82","504873","0.0-14.0-0.0-0.34","5fa4a785e741ed1577d6a4f6","619531dcf66c91622fa1b861","6195961d8483eed60ad8664b","null","","null","","","","","main_T1_ITI","","","","",""
"","","","","","visual-search-circle","83","506652","0.0-14.0-0.0-1.34","5fa4a785e741ed1577d6a4f6","619531dcf66c91622fa1b861","6195961d8483eed60ad8664b","776.5","","d","true","[[115,536],[536,484],[484,63],[63,115]]","true","4","main_T2_Trial","d","img/Fire_Down_Target.gif","[""img/Fire_Up_Distractor.gif"",""img/Fire_Up_Distractor.gif"",""img/Fire_Up_Distractor.gif"",""img/Fire_Up_Distractor.gif"",""img/Fire_Up_Distractor.gif"",""img/Fire_Up_Distractor.gif"",""img/Fire_Up_Distractor.gif"",""img/Fire_Up_Distractor.gif"",""img/Fire_Up_Distractor.gif"",""img/Fire_Up_Distractor.gif"",""img/Fire_Up_Distractor.gif"",""img/Fire_Up_Distractor.gif""]","4","targetDown_distractorsUp"
"","","","","","html-keyboard-response","84","506653","0.0-14.0-0.0-0.35","5fa4a785e741ed1577d6a4f6","619531dcf66c91622fa1b861","6195961d8483eed60ad8664b","null","","null","","","","","main_T1_ITI","","","","",""
"","","","","","visual-search-circle","85","508676","0.0-14.0-0.0-1.35","5fa4a785e741ed1577d6a4f6","619531dcf66c91622fa1b861","6195961d8483eed60ad8664b","1012.4000000003725","","s","true","[[564,159],[247,4],[2,258],[168,569],[515,508]]","false","5","main_T2_Trial","s","img/Fire_Up_Target.gif","[""img/Fire_Down_Distractor.gif"",""img/Fire_Down_Distractor.gif"",""img/Fire_Down_Distractor.gif"",""img/Fire_Down_Distractor.gif"",""img/Fire_Down_Distractor.gif"",""img/Fire_Down_Distractor.gif"",""img/Fire_Down_Distractor.gif"",""img/Fire_Down_Distractor.gif"",""img/Fire_Down_Distractor.gif"",""img/Fire_Down_Distractor.gif"",""img/Fire_Down_Distractor.gif"",""img/Fire_Down_Distractor.gif""]","5","targetUp_distractorsDown"
"","","","","","html-keyboard-response","86","508677","0.0-14.0-0.0-0.36","5fa4a785e741ed1577d6a4f6","619531dcf66c91622fa1b861","6195961d8483eed60ad8664b","null","","null","","","","","main_T1_ITI","","","","",""
"","","","","","visual-search-circle","87","510591","0.0-14.0-0.0-1.36","5fa4a785e741ed1577d6a4f6","619531dcf66c91622fa1b861","6195961d8483eed60ad8664b","909","","d","true","[[599,305],[454,42],[154,37],[0,294],[145,557],[445,562]]","true","6","main_T2_Trial","d","img/Fire_Down_Target.gif","[""img/Fire_Up_Distractor.gif"",""img/Fire_Up_Distractor.gif"",""img/Fire_Up_Distractor.gif"",""img/Fire_Up_Distractor.gif"",""img/Fire_Up_Distractor.gif"",""img/Fire_Up_Distractor.gif"",""img/Fire_Up_Distractor.gif"",""img/Fire_Up_Distractor.gif"",""img/Fire_Up_Distractor.gif"",""img/Fire_Up_Distractor.gif"",""img/Fire_Up_Distractor.gif"",""img/Fire_Up_Distractor.gif""]","6","targetDown_distractorsUp"
"","","","","","html-keyboard-response","88","510592","0.0-14.0-0.0-0.37","5fa4a785e741ed1577d6a4f6","619531dcf66c91622fa1b861","6195961d8483eed60ad8664b","null","","null","","","","","main_T1_ITI","","","","",""
"","","","","","visual-search-circle","89","512230","0.0-14.0-0.0-1.37","5fa4a785e741ed1577d6a4f6","619531dcf66c91622fa1b861","6195961d8483eed60ad8664b","624.9000000003725","","s","true","[[597,336],[336,2],[2,263],[263,597]]","false","4","main_T2_Trial","s","img/Fire_Up_Target.gif","[""img/Fire_Down_Distractor.gif"",""img/Fire_Down_Distractor.gif"",""img/Fire_Down_Distractor.gif"",""img/Fire_Down_Distractor.gif"",""img/Fire_Down_Distractor.gif"",""img/Fire_Down_Distractor.gif"",""img/Fire_Down_Distractor.gif"",""img/Fire_Down_Distractor.gif"",""img/Fire_Down_Distractor.gif"",""img/Fire_Down_Distractor.gif"",""img/Fire_Down_Distractor.gif"",""img/Fire_Down_Distractor.gif""]","4","targetUp_distractorsDown"
"","","","","","html-keyboard-response","90","512231","0.0-14.0-0.0-0.38","5fa4a785e741ed1577d6a4f6","619531dcf66c91622fa1b861","6195961d8483eed60ad8664b","null","","null","","","","","main_T1_ITI","","","","",""
"","","","","","visual-search-circle","91","514031","0.0-14.0-0.0-1.38","5fa4a785e741ed1577d6a4f6","619531dcf66c91622fa1b861","6195961d8483eed60ad8664b","791","","d","true","[[488,66],[192,19],[3,253],[111,533],[407,580],[596,346]]","true","6","main_T2_Trial","d","img/Fire_Down_Target.gif","[""img/Fire_Up_Distractor.gif"",""img/Fire_Up_Distractor.gif"",""img/Fire_Up_Distractor.gif"",""img/Fire_Up_Distractor.gif"",""img/Fire_Up_Distractor.gif"",""img/Fire_Up_Distractor.gif"",""img/Fire_Up_Distractor.gif"",""img/Fire_Up_Distractor.gif"",""img/Fire_Up_Distractor.gif"",""img/Fire_Up_Distractor.gif"",""img/Fire_Up_Distractor.gif"",""img/Fire_Up_Distractor.gif""]","6","targetDown_distractorsUp"
"","","","","","html-keyboard-response","92","516175","0.0-14.0-0.0-0.39","5fa4a785e741ed1577d6a4f6","619531dcf66c91622fa1b861","6195961d8483eed60ad8664b","2143.4000000003725","Wow! You've completed 40 out of 160 trials! </p> <p>  </p><p> Take a quick break, then press any key when you're ready to continue."," ","","","","","main_T1_ITI","","","","",""
"","","","","","visual-search-circle","93","518139","0.0-14.0-0.0-1.39","5fa4a785e741ed1577d6a4f6","619531dcf66c91622fa1b861","6195961d8483eed60ad8664b","950.2000000011176","","d","true","[[141,554],[440,564],[599,310],[458,45],[159,35],[0,289]]","true","6","main_T2_Trial","d","img/Fire_Down_Target.gif","[""img/Fire_Up_Distractor.gif"",""img/Fire_Up_Distractor.gif"",""img/Fire_Up_Distractor.gif"",""img/Fire_Up_Distractor.gif"",""img/Fire_Up_Distractor.gif"",""img/Fire_Up_Distractor.gif"",""img/Fire_Up_Distractor.gif"",""img/Fire_Up_Distractor.gif"",""img/Fire_Up_Distractor.gif"",""img/Fire_Up_Distractor.gif"",""img/Fire_Up_Distractor.gif"",""img/Fire_Up_Distractor.gif""]","6","targetDown_distractorsUp"
"","","","","","html-keyboard-response","94","518141","0.0-14.0-0.0-0.40","5fa4a785e741ed1577d6a4f6","619531dcf66c91622fa1b861","6195961d8483eed60ad8664b","null","","null","","","","","main_T1_ITI","","","","",""
"","","","","","visual-search-circle","95","520015","0.0-14.0-0.0-1.40","5fa4a785e741ed1577d6a4f6","619531dcf66c91622fa1b861","6195961d8483eed60ad8664b","869.0999999996275","","d","true","[[103,526],[454,557],[592,232],[326,1],[23,182]]","true","5","main_T2_Trial","d","img/Fire_Up_Target.gif","[""img/Fire_Down_Distractor.gif"",""img/Fire_Down_Distractor.gif"",""img/Fire_Down_Distractor.gif"",""img/Fire_Down_Distractor.gif"",""img/Fire_Down_Distractor.gif"",""img/Fire_Down_Distractor.gif"",""img/Fire_Down_Distractor.gif"",""img/Fire_Down_Distractor.gif"",""img/Fire_Down_Distractor.gif"",""img/Fire_Down_Distractor.gif"",""img/Fire_Down_Distractor.gif"",""img/Fire_Down_Distractor.gif""]","5","targetUp_distractorsDown"
"","","","","","html-keyboard-response","96","520017","0.0-14.0-0.0-0.41","5fa4a785e741ed1577d6a4f6","619531dcf66c91622fa1b861","6195961d8483eed60ad8664b","null","","null","","","","","main_T1_ITI","","","","",""
"","","","","","visual-search-circle","97","521494","0.0-14.0-0.0-1.41","5fa4a785e741ed1577d6a4f6","619531dcf66c91622fa1b861","6195961d8483eed60ad8664b","464.09999999962747","","s","true","[[598,331],[476,57],[177,25],[1,268],[123,542],[422,574]]","false","6","main_T2_Trial","s","img/Fire_Down_Target.gif","[""img/Fire_Up_Distractor.gif"",""img/Fire_Up_Distractor.gif"",""img/Fire_Up_Distractor.gif"",""img/Fire_Up_Distractor.gif"",""img/Fire_Up_Distractor.gif"",""img/Fire_Up_Distractor.gif"",""img/Fire_Up_Distractor.gif"",""img/Fire_Up_Distractor.gif"",""img/Fire_Up_Distractor.gif"",""img/Fire_Up_Distractor.gif"",""img/Fire_Up_Distractor.gif"",""img/Fire_Up_Distractor.gif""]","6","targetDown_distractorsUp"
"","","","","","html-keyboard-response","98","521496","0.0-14.0-0.0-0.42","5fa4a785e741ed1577d6a4f6","619531dcf66c91622fa1b861","6195961d8483eed60ad8664b","null","","null","","","","","main_T1_ITI","","","","",""
"","","","","","visual-search-circle","99","523481","0.0-14.0-0.0-1.42","5fa4a785e741ed1577d6a4f6","619531dcf66c91622fa1b861","6195961d8483eed60ad8664b","972.2000000011176","","s","false","[[599,310],[495,72],[243,5],[34,160],[25,420],[223,589],[478,540]]","true","7","main_T2_Trial","d","img/Fire_Up_Target.gif","[""img/Fire_Down_Distractor.gif"",""img/Fire_Down_Distractor.gif"",""img/Fire_Down_Distractor.gif"",""img/Fire_Down_Distractor.gif"",""img/Fire_Down_Distractor.gif"",""img/Fire_Down_Distractor.gif"",""img/Fire_Down_Distractor.gif"",""img/Fire_Down_Distractor.gif"",""img/Fire_Down_Distractor.gif"",""img/Fire_Down_Distractor.gif"",""img/Fire_Down_Distractor.gif"",""img/Fire_Down_Distractor.gif""]","7","targetUp_distractorsDown"
"","","","","","html-keyboard-response","100","523482","0.0-14.0-0.0-0.43","5fa4a785e741ed1577d6a4f6","619531dcf66c91622fa1b861","6195961d8483eed60ad8664b","null","","null","","","","","main_T1_ITI","","","","",""
"","","","","","visual-search-circle","101","525497","0.0-14.0-0.0-1.43","5fa4a785e741ed1577d6a4f6","619531dcf66c91622fa1b861","6195961d8483eed60ad8664b","1001.5","","s","false","[[19,192],[41,451],[257,596],[505,518],[598,275],[467,50],[209,13]]","true","7","main_T2_Trial","d","img/Fire_Down_Target.gif","[""img/Fire_Up_Distractor.gif"",""img/Fire_Up_Distractor.gif"",""img/Fire_Up_Distractor.gif"",""img/Fire_Up_Distractor.gif"",""img/Fire_Up_Distractor.gif"",""img/Fire_Up_Distractor.gif"",""img/Fire_Up_Distractor.gif"",""img/Fire_Up_Distractor.gif"",""img/Fire_Up_Distractor.gif"",""img/Fire_Up_Distractor.gif"",""img/Fire_Up_Distractor.gif"",""img/Fire_Up_Distractor.gif""]","7","targetDown_distractorsUp"
"","","","","","html-keyboard-response","102","525499","0.0-14.0-0.0-0.44","5fa4a785e741ed1577d6a4f6","619531dcf66c91622fa1b861","6195961d8483eed60ad8664b","null","","null","","","","","main_T1_ITI","","","","",""
"","","","","","visual-search-circle","103","527644","0.0-14.0-0.0-1.44","5fa4a785e741ed1577d6a4f6","619531dcf66c91622fa1b861","6195961d8483eed60ad8664b","1127.199999999255","","s","false","[[42,145],[73,496],[417,576],[598,273],[367,7]]","true","5","main_T2_Trial","d","img/Fire_Down_Target.gif","[""img/Fire_Up_Distractor.gif"",""img/Fire_Up_Distractor.gif"",""img/Fire_Up_Distractor.gif"",""img/Fire_Up_Distractor.gif"",""img/Fire_Up_Distractor.gif"",""img/Fire_Up_Distractor.gif"",""img/Fire_Up_Distractor.gif"",""img/Fire_Up_Distractor.gif"",""img/Fire_Up_Distractor.gif"",""img/Fire_Up_Distractor.gif"",""img/Fire_Up_Distractor.gif"",""img/Fire_Up_Distractor.gif""]","5","targetDown_distractorsUp"
"","","","","","html-keyboard-response","104","527645","0.0-14.0-0.0-0.45","5fa4a785e741ed1577d6a4f6","619531dcf66c91622fa1b861","6195961d8483eed60ad8664b","null","","null","","","","","main_T1_ITI","","","","",""
"","","","","","visual-search-circle","105","529225","0.0-14.0-0.0-1.45","5fa4a785e741ed1577d6a4f6","619531dcf66c91622fa1b861","6195961d8483eed60ad8664b","565","","d","true","[[436,32],[87,87],[32,436],[346,596],[596,346]]","true","5","main_T2_Trial","d","img/Fire_Down_Target.gif","[""img/Fire_Up_Distractor.gif"",""img/Fire_Up_Distractor.gif"",""img/Fire_Up_Distractor.gif"",""img/Fire_Up_Distractor.gif"",""img/Fire_Up_Distractor.gif"",""img/Fire_Up_Distractor.gif"",""img/Fire_Up_Distractor.gif"",""img/Fire_Up_Distractor.gif"",""img/Fire_Up_Distractor.gif"",""img/Fire_Up_Distractor.gif"",""img/Fire_Up_Distractor.gif"",""img/Fire_Up_Distractor.gif""]","5","targetDown_distractorsUp"
"","","","","","html-keyboard-response","106","529226","0.0-14.0-0.0-0.46","5fa4a785e741ed1577d6a4f6","619531dcf66c91622fa1b861","6195961d8483eed60ad8664b","null","","null","","","","","main_T1_ITI","","","","",""
"","","","","","visual-search-circle","107","530887","0.0-14.0-0.0-1.46","5fa4a785e741ed1577d6a4f6","619531dcf66c91622fa1b861","6195961d8483eed60ad8664b","654.4000000003725","","s","true","[[182,576],[576,417],[417,23],[23,182]]","false","4","main_T2_Trial","s","img/Fire_Up_Target.gif","[""img/Fire_Down_Distractor.gif"",""img/Fire_Down_Distractor.gif"",""img/Fire_Down_Distractor.gif"",""img/Fire_Down_Distractor.gif"",""img/Fire_Down_Distractor.gif"",""img/Fire_Down_Distractor.gif"",""img/Fire_Down_Distractor.gif"",""img/Fire_Down_Distractor.gif"",""img/Fire_Down_Distractor.gif"",""img/Fire_Down_Distractor.gif"",""img/Fire_Down_Distractor.gif"",""img/Fire_Down_Distractor.gif""]","4","targetUp_distractorsDown"
"","","","","","html-keyboard-response","108","530888","0.0-14.0-0.0-0.47","5fa4a785e741ed1577d6a4f6","619531dcf66c91622fa1b861","6195961d8483eed60ad8664b","null","","null","","","","","main_T1_ITI","","","","",""
"","","","","","visual-search-circle","109","532562","0.0-14.0-0.0-1.47","5fa4a785e741ed1577d6a4f6","619531dcf66c91622fa1b861","6195961d8483eed60ad8664b","665.4000000003725","","s","true","[[480,60],[60,119],[119,539],[539,480]]","false","4","main_T2_Trial","s","img/Fire_Up_Target.gif","[""img/Fire_Down_Distractor.gif"",""img/Fire_Down_Distractor.gif"",""img/Fire_Down_Distractor.gif"",""img/Fire_Down_Distractor.gif"",""img/Fire_Down_Distractor.gif"",""img/Fire_Down_Distractor.gif"",""img/Fire_Down_Distractor.gif"",""img/Fire_Down_Distractor.gif"",""img/Fire_Down_Distractor.gif"",""img/Fire_Down_Distractor.gif"",""img/Fire_Down_Distractor.gif"",""img/Fire_Down_Distractor.gif""]","4","targetUp_distractorsDown"
"","","","","","html-keyboard-response","110","532564","0.0-14.0-0.0-0.48","5fa4a785e741ed1577d6a4f6","619531dcf66c91622fa1b861","6195961d8483eed60ad8664b","null","","null","","","","","main_T1_ITI","","","","",""
"","","","","","visual-search-circle","111","534350","0.0-14.0-0.0-1.48","5fa4a785e741ed1577d6a4f6","619531dcf66c91622fa1b861","6195961d8483eed60ad8664b","774.4000000003725","","s","true","[[289,0],[11,217],[132,548],[484,536],[581,197]]","false","5","main_T2_Trial","s","img/Fire_Up_Target.gif","[""img/Fire_Down_Distractor.gif"",""img/Fire_Down_Distractor.gif"",""img/Fire_Down_Distractor.gif"",""img/Fire_Down_Distractor.gif"",""img/Fire_Down_Distractor.gif"",""img/Fire_Down_Distractor.gif"",""img/Fire_Down_Distractor.gif"",""img/Fire_Down_Distractor.gif"",""img/Fire_Down_Distractor.gif"",""img/Fire_Down_Distractor.gif"",""img/Fire_Down_Distractor.gif"",""img/Fire_Down_Distractor.gif""]","5","targetUp_distractorsDown"
"","","","","","html-keyboard-response","112","534351","0.0-14.0-0.0-0.49","5fa4a785e741ed1577d6a4f6","619531dcf66c91622fa1b861","6195961d8483eed60ad8664b","null","","null","","","","","main_T1_ITI","","","","",""
"","","","","","visual-search-circle","113","536462","0.0-14.0-0.0-1.49","5fa4a785e741ed1577d6a4f6","619531dcf66c91622fa1b861","6195961d8483eed60ad8664b","1094.800000000745","","s","true","[[346,3],[123,57],[3,253],[57,476],[253,596],[476,542],[596,346],[542,123]]","false","8","main_T2_Trial","s","img/Fire_Up_Target.gif","[""img/Fire_Down_Distractor.gif"",""img/Fire_Down_Distractor.gif"",""img/Fire_Down_Distractor.gif"",""img/Fire_Down_Distractor.gif"",""img/Fire_Down_Distractor.gif"",""img/Fire_Down_Distractor.gif"",""img/Fire_Down_Distractor.gif"",""img/Fire_Down_Distractor.gif"",""img/Fire_Down_Distractor.gif"",""img/Fire_Down_Distractor.gif"",""img/Fire_Down_Distractor.gif"",""img/Fire_Down_Distractor.gif""]","8","targetUp_distractorsDown"
"","","","","","html-keyboard-response","114","536464","0.0-14.0-0.0-0.50","5fa4a785e741ed1577d6a4f6","619531dcf66c91622fa1b861","6195961d8483eed60ad8664b","null","","null","","","","","main_T1_ITI","","","","",""
"","","","","","visual-search-circle","115","538339","0.0-14.0-0.0-1.50","5fa4a785e741ed1577d6a4f6","619531dcf66c91622fa1b861","6195961d8483eed60ad8664b","859.8000000007451","","d","true","[[42,454],[367,592],[598,326],[417,23],[73,103]]","true","5","main_T2_Trial","d","img/Fire_Up_Target.gif","[""img/Fire_Down_Distractor.gif"",""img/Fire_Down_Distractor.gif"",""img/Fire_Down_Distractor.gif"",""img/Fire_Down_Distractor.gif"",""img/Fire_Down_Distractor.gif"",""img/Fire_Down_Distractor.gif"",""img/Fire_Down_Distractor.gif"",""img/Fire_Down_Distractor.gif"",""img/Fire_Down_Distractor.gif"",""img/Fire_Down_Distractor.gif"",""img/Fire_Down_Distractor.gif"",""img/Fire_Down_Distractor.gif""]","5","targetUp_distractorsDown"
"","","","","","html-keyboard-response","116","538340","0.0-14.0-0.0-0.51","5fa4a785e741ed1577d6a4f6","619531dcf66c91622fa1b861","6195961d8483eed60ad8664b","null","","null","","","","","main_T1_ITI","","","","",""
"","","","","","visual-search-circle","117","540429","0.0-14.0-0.0-1.51","5fa4a785e741ed1577d6a4f6","619531dcf66c91622fa1b861","6195961d8483eed60ad8664b","1083.5","","d","true","[[377,10],[48,136],[66,488],[407,580],[599,284]]","true","5","main_T2_Trial","d","img/Fire_Down_Target.gif","[""img/Fire_Up_Distractor.gif"",""img/Fire_Up_Distractor.gif"",""img/Fire_Up_Distractor.gif"",""img/Fire_Up_Distractor.gif"",""img/Fire_Up_Distractor.gif"",""img/Fire_Up_Distractor.gif"",""img/Fire_Up_Distractor.gif"",""img/Fire_Up_Distractor.gif"",""img/Fire_Up_Distractor.gif"",""img/Fire_Up_Distractor.gif"",""img/Fire_Up_Distractor.gif"",""img/Fire_Up_Distractor.gif""]","5","targetDown_distractorsUp"
"","","","","","html-keyboard-response","118","540430","0.0-14.0-0.0-0.52","5fa4a785e741ed1577d6a4f6","619531dcf66c91622fa1b861","6195961d8483eed60ad8664b","null","","null","","","","","main_T1_ITI","","","","",""
"","","","","","visual-search-circle","119","542688","0.0-14.0-0.0-1.52","5fa4a785e741ed1577d6a4f6","619531dcf66c91622fa1b861","6195961d8483eed60ad8664b","1244.4000000003725","","d","true","[[315,599],[599,284],[284,0],[0,315]]","true","4","main_T2_Trial","d","img/Fire_Down_Target.gif","[""img/Fire_Up_Distractor.gif"",""img/Fire_Up_Distractor.gif"",""img/Fire_Up_Distractor.gif"",""img/Fire_Up_Distractor.gif"",""img/Fire_Up_Distractor.gif"",""img/Fire_Up_Distractor.gif"",""img/Fire_Up_Distractor.gif"",""img/Fire_Up_Distractor.gif"",""img/Fire_Up_Distractor.gif"",""img/Fire_Up_Distractor.gif"",""img/Fire_Up_Distractor.gif"",""img/Fire_Up_Distractor.gif""]","4","targetDown_distractorsUp"
"","","","","","html-keyboard-response","120","542690","0.0-14.0-0.0-0.53","5fa4a785e741ed1577d6a4f6","619531dcf66c91622fa1b861","6195961d8483eed60ad8664b","null","","null","","","","","main_T1_ITI","","","","",""
"","","","","","visual-search-circle","121","544290","0.0-14.0-0.0-1.53","5fa4a785e741ed1577d6a4f6","619531dcf66c91622fa1b861","6195961d8483eed60ad8664b","593.9000000003725","","s","true","[[8,227],[141,554],[492,529],[578,187],[279,0]]","false","5","main_T2_Trial","s","img/Fire_Up_Target.gif","[""img/Fire_Down_Distractor.gif"",""img/Fire_Down_Distractor.gif"",""img/Fire_Down_Distractor.gif"",""img/Fire_Down_Distractor.gif"",""img/Fire_Down_Distractor.gif"",""img/Fire_Down_Distractor.gif"",""img/Fire_Down_Distractor.gif"",""img/Fire_Down_Distractor.gif"",""img/Fire_Down_Distractor.gif"",""img/Fire_Down_Distractor.gif"",""img/Fire_Down_Distractor.gif"",""img/Fire_Down_Distractor.gif""]","5","targetUp_distractorsDown"
"","","","","","html-keyboard-response","122","544294","0.0-14.0-0.0-0.54","5fa4a785e741ed1577d6a4f6","619531dcf66c91622fa1b861","6195961d8483eed60ad8664b","null","","null","","","","","main_T1_ITI","","","","",""
"","","","","","visual-search-circle","123","546267","0.0-14.0-0.0-1.54","5fa4a785e741ed1577d6a4f6","619531dcf66c91622fa1b861","6195961d8483eed60ad8664b","968.6999999992549","","d","false","[[25,177],[99,522],[450,559],[593,237],[331,1]]","false","5","main_T2_Trial","s","img/Fire_Down_Target.gif","[""img/Fire_Up_Distractor.gif"",""img/Fire_Up_Distractor.gif"",""img/Fire_Up_Distractor.gif"",""img/Fire_Up_Distractor.gif"",""img/Fire_Up_Distractor.gif"",""img/Fire_Up_Distractor.gif"",""img/Fire_Up_Distractor.gif"",""img/Fire_Up_Distractor.gif"",""img/Fire_Up_Distractor.gif"",""img/Fire_Up_Distractor.gif"",""img/Fire_Up_Distractor.gif"",""img/Fire_Up_Distractor.gif""]","5","targetDown_distractorsUp"
"","","","","","html-keyboard-response","124","546269","0.0-14.0-0.0-0.55","5fa4a785e741ed1577d6a4f6","619531dcf66c91622fa1b861","6195961d8483eed60ad8664b","null","","null","","","","","main_T1_ITI","","","","",""
"","","","","","visual-search-circle","125","548045","0.0-14.0-0.0-1.55","5fa4a785e741ed1577d6a4f6","619531dcf66c91622fa1b861","6195961d8483eed60ad8664b","770.8999999985099","","d","true","[[284,0],[55,125],[11,381],[184,576],[444,563],[595,351],[524,100]]","true","7","main_T2_Trial","d","img/Fire_Down_Target.gif","[""img/Fire_Up_Distractor.gif"",""img/Fire_Up_Distractor.gif"",""img/Fire_Up_Distractor.gif"",""img/Fire_Up_Distractor.gif"",""img/Fire_Up_Distractor.gif"",""img/Fire_Up_Distractor.gif"",""img/Fire_Up_Distractor.gif"",""img/Fire_Up_Distractor.gif"",""img/Fire_Up_Distractor.gif"",""img/Fire_Up_Distractor.gif"",""img/Fire_Up_Distractor.gif"",""img/Fire_Up_Distractor.gif""]","7","targetDown_distractorsUp"
"","","","","","html-keyboard-response","126","548048","0.0-14.0-0.0-0.56","5fa4a785e741ed1577d6a4f6","619531dcf66c91622fa1b861","6195961d8483eed60ad8664b","null","","null","","","","","main_T1_ITI","","","","",""
"","","","","","visual-search-circle","127","549774","0.0-14.0-0.0-1.56","5fa4a785e741ed1577d6a4f6","619531dcf66c91622fa1b861","6195961d8483eed60ad8664b","711.3000000007451","","s","true","[[28,426],[197,581],[426,571],[581,402],[571,173],[402,18],[173,28],[18,197]]","false","8","main_T2_Trial","s","img/Fire_Down_Target.gif","[""img/Fire_Up_Distractor.gif"",""img/Fire_Up_Distractor.gif"",""img/Fire_Up_Distractor.gif"",""img/Fire_Up_Distractor.gif"",""img/Fire_Up_Distractor.gif"",""img/Fire_Up_Distractor.gif"",""img/Fire_Up_Distractor.gif"",""img/Fire_Up_Distractor.gif"",""img/Fire_Up_Distractor.gif"",""img/Fire_Up_Distractor.gif"",""img/Fire_Up_Distractor.gif"",""img/Fire_Up_Distractor.gif""]","8","targetDown_distractorsUp"
"","","","","","html-keyboard-response","128","549775","0.0-14.0-0.0-0.57","5fa4a785e741ed1577d6a4f6","619531dcf66c91622fa1b861","6195961d8483eed60ad8664b","null","","null","","","","","main_T1_ITI","","","","",""
"","","","","","visual-search-circle","129","551939","0.0-14.0-0.0-1.57","5fa4a785e741ed1577d6a4f6","619531dcf66c91622fa1b861","6195961d8483eed60ad8664b","1148","","s","false","[[522,99],[282,0],[54,127],[12,384],[186,577],[446,562],[595,349]]","true","7","main_T2_Trial","d","img/Fire_Down_Target.gif","[""img/Fire_Up_Distractor.gif"",""img/Fire_Up_Distractor.gif"",""img/Fire_Up_Distractor.gif"",""img/Fire_Up_Distractor.gif"",""img/Fire_Up_Distractor.gif"",""img/Fire_Up_Distractor.gif"",""img/Fire_Up_Distractor.gif"",""img/Fire_Up_Distractor.gif"",""img/Fire_Up_Distractor.gif"",""img/Fire_Up_Distractor.gif"",""img/Fire_Up_Distractor.gif"",""img/Fire_Up_Distractor.gif""]","7","targetDown_distractorsUp"
"","","","","","html-keyboard-response","130","551940","0.0-14.0-0.0-0.58","5fa4a785e741ed1577d6a4f6","619531dcf66c91622fa1b861","6195961d8483eed60ad8664b","null","","null","","","","","main_T1_ITI","","","","",""
"","","","","","visual-search-circle","131","553847","0.0-14.0-0.0-1.58","5fa4a785e741ed1577d6a4f6","619531dcf66c91622fa1b861","6195961d8483eed60ad8664b","897.8000000007451","","s","true","[[372,8],[8,227],[227,591],[591,372]]","false","4","main_T2_Trial","s","img/Fire_Up_Target.gif","[""img/Fire_Down_Distractor.gif"",""img/Fire_Down_Distractor.gif"",""img/Fire_Down_Distractor.gif"",""img/Fire_Down_Distractor.gif"",""img/Fire_Down_Distractor.gif"",""img/Fire_Down_Distractor.gif"",""img/Fire_Down_Distractor.gif"",""img/Fire_Down_Distractor.gif"",""img/Fire_Down_Distractor.gif"",""img/Fire_Down_Distractor.gif"",""img/Fire_Down_Distractor.gif"",""img/Fire_Down_Distractor.gif""]","4","targetUp_distractorsDown"
"","","","","","html-keyboard-response","132","555907","0.0-14.0-0.0-0.59","5fa4a785e741ed1577d6a4f6","619531dcf66c91622fa1b861","6195961d8483eed60ad8664b","2059.7000000011176","Wow! You've completed 60 out of 160 trials! </p> <p>  </p><p> Take a quick break, then press any key when you're ready to continue."," ","","","","","main_T1_ITI","","","","",""
"","","","","","visual-search-circle","133","558466","0.0-14.0-0.0-1.59","5fa4a785e741ed1577d6a4f6","619531dcf66c91622fa1b861","6195961d8483eed60ad8664b","1551.2999999988824","","s","true","[[522,99],[315,0],[99,77],[0,284],[77,500],[284,599],[500,522],[599,315]]","false","8","main_T2_Trial","s","img/Fire_Up_Target.gif","[""img/Fire_Down_Distractor.gif"",""img/Fire_Down_Distractor.gif"",""img/Fire_Down_Distractor.gif"",""img/Fire_Down_Distractor.gif"",""img/Fire_Down_Distractor.gif"",""img/Fire_Down_Distractor.gif"",""img/Fire_Down_Distractor.gif"",""img/Fire_Down_Distractor.gif"",""img/Fire_Down_Distractor.gif"",""img/Fire_Down_Distractor.gif"",""img/Fire_Down_Distractor.gif"",""img/Fire_Down_Distractor.gif""]","8","targetUp_distractorsDown"
"","","","","","html-keyboard-response","134","558467","0.0-14.0-0.0-0.60","5fa4a785e741ed1577d6a4f6","619531dcf66c91622fa1b861","6195961d8483eed60ad8664b","null","","null","","","","","main_T1_ITI","","","","",""
"","","","","","visual-search-circle","135","560147","0.0-14.0-0.0-1.60","5fa4a785e741ed1577d6a4f6","619531dcf66c91622fa1b861","6195961d8483eed60ad8664b","672.5999999996275","","d","true","[[127,54],[1,326],[173,571],[472,545],[598,273],[426,28]]","true","6","main_T2_Trial","d","img/Fire_Down_Target.gif","[""img/Fire_Up_Distractor.gif"",""img/Fire_Up_Distractor.gif"",""img/Fire_Up_Distractor.gif"",""img/Fire_Up_Distractor.gif"",""img/Fire_Up_Distractor.gif"",""img/Fire_Up_Distractor.gif"",""img/Fire_Up_Distractor.gif"",""img/Fire_Up_Distractor.gif"",""img/Fire_Up_Distractor.gif"",""img/Fire_Up_Distractor.gif"",""img/Fire_Up_Distractor.gif"",""img/Fire_Up_Distractor.gif""]","6","targetDown_distractorsUp"
"","","","","","html-keyboard-response","136","560149","0.0-14.0-0.0-0.61","5fa4a785e741ed1577d6a4f6","619531dcf66c91622fa1b861","6195961d8483eed60ad8664b","null","","null","","","","","main_T1_ITI","","","","",""
"","","","","","visual-search-circle","137","561778","0.0-14.0-0.0-1.61","5fa4a785e741ed1577d6a4f6","619531dcf66c91622fa1b861","6195961d8483eed60ad8664b","621.2000000011176","","s","false","[[454,557],[599,294],[445,37],[145,42],[0,305],[154,562]]","true","6","main_T2_Trial","d","img/Fire_Down_Target.gif","[""img/Fire_Up_Distractor.gif"",""img/Fire_Up_Distractor.gif"",""img/Fire_Up_Distractor.gif"",""img/Fire_Up_Distractor.gif"",""img/Fire_Up_Distractor.gif"",""img/Fire_Up_Distractor.gif"",""img/Fire_Up_Distractor.gif"",""img/Fire_Up_Distractor.gif"",""img/Fire_Up_Distractor.gif"",""img/Fire_Up_Distractor.gif"",""img/Fire_Up_Distractor.gif"",""img/Fire_Up_Distractor.gif""]","6","targetDown_distractorsUp"
"","","","","","html-keyboard-response","138","561780","0.0-14.0-0.0-0.62","5fa4a785e741ed1577d6a4f6","619531dcf66c91622fa1b861","6195961d8483eed60ad8664b","null","","null","","","","","main_T1_ITI","","","","",""
"","","","","","visual-search-circle","139","564100","0.0-14.0-0.0-1.62","5fa4a785e741ed1577d6a4f6","619531dcf66c91622fa1b861","6195961d8483eed60ad8664b","1308.5999999996275","","s","false","[[597,263],[357,5],[37,154],[80,504],[426,571]]","true","5","main_T2_Trial","d","img/Fire_Up_Target.gif","[""img/Fire_Down_Distractor.gif"",""img/Fire_Down_Distractor.gif"",""img/Fire_Down_Distractor.gif"",""img/Fire_Down_Distractor.gif"",""img/Fire_Down_Distractor.gif"",""img/Fire_Down_Distractor.gif"",""img/Fire_Down_Distractor.gif"",""img/Fire_Down_Distractor.gif"",""img/Fire_Down_Distractor.gif"",""img/Fire_Down_Distractor.gif"",""img/Fire_Down_Distractor.gif"",""img/Fire_Down_Distractor.gif""]","5","targetUp_distractorsDown"
"","","","","","html-keyboard-response","140","564101","0.0-14.0-0.0-0.63","5fa4a785e741ed1577d6a4f6","619531dcf66c91622fa1b861","6195961d8483eed60ad8664b","null","","null","","","","","main_T1_ITI","","","","",""
"","","","","","visual-search-circle","141","566186","0.0-14.0-0.0-1.63","5fa4a785e741ed1577d6a4f6","619531dcf66c91622fa1b861","6195961d8483eed60ad8664b","1080.5","","s","true","[[595,352],[492,70],[197,18],[4,247],[107,529],[402,581]]","false","6","main_T2_Trial","s","img/Fire_Down_Target.gif","[""img/Fire_Up_Distractor.gif"",""img/Fire_Up_Distractor.gif"",""img/Fire_Up_Distractor.gif"",""img/Fire_Up_Distractor.gif"",""img/Fire_Up_Distractor.gif"",""img/Fire_Up_Distractor.gif"",""img/Fire_Up_Distractor.gif"",""img/Fire_Up_Distractor.gif"",""img/Fire_Up_Distractor.gif"",""img/Fire_Up_Distractor.gif"",""img/Fire_Up_Distractor.gif"",""img/Fire_Up_Distractor.gif""]","6","targetDown_distractorsUp"
"","","","","","html-keyboard-response","142","566188","0.0-14.0-0.0-0.64","5fa4a785e741ed1577d6a4f6","619531dcf66c91622fa1b861","6195961d8483eed60ad8664b","null","","null","","","","","main_T1_ITI","","","","",""
"","","","","","visual-search-circle","143","568100","0.0-14.0-0.0-1.64","5fa4a785e741ed1577d6a4f6","619531dcf66c91622fa1b861","6195961d8483eed60ad8664b","897.9000000003725","","s","true","[[18,197],[70,492],[352,595],[581,402],[529,107],[247,4]]","false","6","main_T2_Trial","s","img/Fire_Down_Target.gif","[""img/Fire_Up_Distractor.gif"",""img/Fire_Up_Distractor.gif"",""img/Fire_Up_Distractor.gif"",""img/Fire_Up_Distractor.gif"",""img/Fire_Up_Distractor.gif"",""img/Fire_Up_Distractor.gif"",""img/Fire_Up_Distractor.gif"",""img/Fire_Up_Distractor.gif"",""img/Fire_Up_Distractor.gif"",""img/Fire_Up_Distractor.gif"",""img/Fire_Up_Distractor.gif"",""img/Fire_Up_Distractor.gif""]","6","targetDown_distractorsUp"
"","","","","","html-keyboard-response","144","568102","0.0-14.0-0.0-0.65","5fa4a785e741ed1577d6a4f6","619531dcf66c91622fa1b861","6195961d8483eed60ad8664b","null","","null","","","","","main_T1_ITI","","","","",""
"","","","","","visual-search-circle","145","569871","0.0-14.0-0.0-1.65","5fa4a785e741ed1577d6a4f6","619531dcf66c91622fa1b861","6195961d8483eed60ad8664b","757.2999999988824","","d","true","[[512,87],[300,0],[87,87],[0,299],[87,512],[299,600],[512,512],[600,300]]","true","8","main_T2_Trial","d","img/Fire_Up_Target.gif","[""img/Fire_Down_Distractor.gif"",""img/Fire_Down_Distractor.gif"",""img/Fire_Down_Distractor.gif"",""img/Fire_Down_Distractor.gif"",""img/Fire_Down_Distractor.gif"",""img/Fire_Down_Distractor.gif"",""img/Fire_Down_Distractor.gif"",""img/Fire_Down_Distractor.gif"",""img/Fire_Down_Distractor.gif"",""img/Fire_Down_Distractor.gif"",""img/Fire_Down_Distractor.gif"",""img/Fire_Down_Distractor.gif""]","8","targetUp_distractorsDown"
"","","","","","html-keyboard-response","146","569875","0.0-14.0-0.0-0.66","5fa4a785e741ed1577d6a4f6","619531dcf66c91622fa1b861","6195961d8483eed60ad8664b","null","","null","","","","","main_T1_ITI","","","","",""
"","","","","","visual-search-circle","147","571869","0.0-14.0-0.0-1.66","5fa4a785e741ed1577d6a4f6","619531dcf66c91622fa1b861","6195961d8483eed60ad8664b","982.7000000011176","","s","true","[[431,569],[597,258],[352,4],[35,159],[84,508]]","false","5","main_T2_Trial","s","img/Fire_Down_Target.gif","[""img/Fire_Up_Distractor.gif"",""img/Fire_Up_Distractor.gif"",""img/Fire_Up_Distractor.gif"",""img/Fire_Up_Distractor.gif"",""img/Fire_Up_Distractor.gif"",""img/Fire_Up_Distractor.gif"",""img/Fire_Up_Distractor.gif"",""img/Fire_Up_Distractor.gif"",""img/Fire_Up_Distractor.gif"",""img/Fire_Up_Distractor.gif"",""img/Fire_Up_Distractor.gif"",""img/Fire_Up_Distractor.gif""]","5","targetDown_distractorsUp"
"","","","","","html-keyboard-response","148","571870","0.0-14.0-0.0-0.67","5fa4a785e741ed1577d6a4f6","619531dcf66c91622fa1b861","6195961d8483eed60ad8664b","null","","null","","","","","main_T1_ITI","","","","",""
"","","","","","visual-search-circle","149","573839","0.0-14.0-0.0-1.67","5fa4a785e741ed1577d6a4f6","619531dcf66c91622fa1b861","6195961d8483eed60ad8664b","959.8000000007451","","s","true","[[132,548],[484,536],[581,197],[289,0],[11,217]]","false","5","main_T2_Trial","s","img/Fire_Down_Target.gif","[""img/Fire_Up_Distractor.gif"",""img/Fire_Up_Distractor.gif"",""img/Fire_Up_Distractor.gif"",""img/Fire_Up_Distractor.gif"",""img/Fire_Up_Distractor.gif"",""img/Fire_Up_Distractor.gif"",""img/Fire_Up_Distractor.gif"",""img/Fire_Up_Distractor.gif"",""img/Fire_Up_Distractor.gif"",""img/Fire_Up_Distractor.gif"",""img/Fire_Up_Distractor.gif"",""img/Fire_Up_Distractor.gif""]","5","targetDown_distractorsUp"
"","","","","","html-keyboard-response","150","573841","0.0-14.0-0.0-0.68","5fa4a785e741ed1577d6a4f6","619531dcf66c91622fa1b861","6195961d8483eed60ad8664b","null","","null","","","","","main_T1_ITI","","","","",""
"","","","","","visual-search-circle","151","575977","0.0-14.0-0.0-1.68","5fa4a785e741ed1577d6a4f6","619531dcf66c91622fa1b861","6195961d8483eed60ad8664b","1122.2000000011176","","s","true","[[467,51],[115,63],[18,402],[310,599],[588,382]]","false","5","main_T2_Trial","s","img/Fire_Down_Target.gif","[""img/Fire_Up_Distractor.gif"",""img/Fire_Up_Distractor.gif"",""img/Fire_Up_Distractor.gif"",""img/Fire_Up_Distractor.gif"",""img/Fire_Up_Distractor.gif"",""img/Fire_Up_Distractor.gif"",""img/Fire_Up_Distractor.gif"",""img/Fire_Up_Distractor.gif"",""img/Fire_Up_Distractor.gif"",""img/Fire_Up_Distractor.gif"",""img/Fire_Up_Distractor.gif"",""img/Fire_Up_Distractor.gif""]","5","targetDown_distractorsUp"
"","","","","","html-keyboard-response","152","575980","0.0-14.0-0.0-0.69","5fa4a785e741ed1577d6a4f6","619531dcf66c91622fa1b861","6195961d8483eed60ad8664b","null","","null","","","","","main_T1_ITI","","","","",""
"","","","","","visual-search-circle","153","577717","0.0-14.0-0.0-1.69","5fa4a785e741ed1577d6a4f6","619531dcf66c91622fa1b861","6195961d8483eed60ad8664b","731.8000000007451","","d","true","[[60,480],[258,597],[480,539],[597,341],[539,119],[341,2],[119,60],[2,258]]","true","8","main_T2_Trial","d","img/Fire_Down_Target.gif","[""img/Fire_Up_Distractor.gif"",""img/Fire_Up_Distractor.gif"",""img/Fire_Up_Distractor.gif"",""img/Fire_Up_Distractor.gif"",""img/Fire_Up_Distractor.gif"",""img/Fire_Up_Distractor.gif"",""img/Fire_Up_Distractor.gif"",""img/Fire_Up_Distractor.gif"",""img/Fire_Up_Distractor.gif"",""img/Fire_Up_Distractor.gif"",""img/Fire_Up_Distractor.gif"",""img/Fire_Up_Distractor.gif""]","8","targetDown_distractorsUp"
"","","","","","html-keyboard-response","154","577719","0.0-14.0-0.0-0.70","5fa4a785e741ed1577d6a4f6","619531dcf66c91622fa1b861","6195961d8483eed60ad8664b","null","","null","","","","","main_T1_ITI","","","","",""
"","","","","","visual-search-circle","155","579936","0.0-14.0-0.0-1.70","5fa4a785e741ed1577d6a4f6","619531dcf66c91622fa1b861","6195961d8483eed60ad8664b","1207.4000000003725","","s","true","[[326,1],[107,70],[1,273],[70,492],[273,598],[492,529],[598,326],[529,107]]","false","8","main_T2_Trial","s","img/Fire_Down_Target.gif","[""img/Fire_Up_Distractor.gif"",""img/Fire_Up_Distractor.gif"",""img/Fire_Up_Distractor.gif"",""img/Fire_Up_Distractor.gif"",""img/Fire_Up_Distractor.gif"",""img/Fire_Up_Distractor.gif"",""img/Fire_Up_Distractor.gif"",""img/Fire_Up_Distractor.gif"",""img/Fire_Up_Distractor.gif"",""img/Fire_Up_Distractor.gif"",""img/Fire_Up_Distractor.gif"",""img/Fire_Up_Distractor.gif""]","8","targetDown_distractorsUp"
"","","","","","html-keyboard-response","156","579938","0.0-14.0-0.0-0.71","5fa4a785e741ed1577d6a4f6","619531dcf66c91622fa1b861","6195961d8483eed60ad8664b","null","","null","","","","","main_T1_ITI","","","","",""
"","","","","","visual-search-circle","157","582080","0.0-14.0-0.0-1.71","5fa4a785e741ed1577d6a4f6","619531dcf66c91622fa1b861","6195961d8483eed60ad8664b","1131.5","","s","false","[[247,595],[564,440],[515,91],[168,30],[2,341]]","true","5","main_T2_Trial","d","img/Fire_Up_Target.gif","[""img/Fire_Down_Distractor.gif"",""img/Fire_Down_Distractor.gif"",""img/Fire_Down_Distractor.gif"",""img/Fire_Down_Distractor.gif"",""img/Fire_Down_Distractor.gif"",""img/Fire_Down_Distractor.gif"",""img/Fire_Down_Distractor.gif"",""img/Fire_Down_Distractor.gif"",""img/Fire_Down_Distractor.gif"",""img/Fire_Down_Distractor.gif"",""img/Fire_Down_Distractor.gif"",""img/Fire_Down_Distractor.gif""]","5","targetUp_distractorsDown"
"","","","","","html-keyboard-response","158","582081","0.0-14.0-0.0-0.72","5fa4a785e741ed1577d6a4f6","619531dcf66c91622fa1b861","6195961d8483eed60ad8664b","null","","null","","","","","main_T1_ITI","","","","",""
"","","","","","visual-search-circle","159","584049","0.0-14.0-0.0-1.72","5fa4a785e741ed1577d6a4f6","619531dcf66c91622fa1b861","6195961d8483eed60ad8664b","953.4000000003725","","d","true","[[519,504],[504,80],[80,95],[95,519]]","true","4","main_T2_Trial","d","img/Fire_Down_Target.gif","[""img/Fire_Up_Distractor.gif"",""img/Fire_Up_Distractor.gif"",""img/Fire_Up_Distractor.gif"",""img/Fire_Up_Distractor.gif"",""img/Fire_Up_Distractor.gif"",""img/Fire_Up_Distractor.gif"",""img/Fire_Up_Distractor.gif"",""img/Fire_Up_Distractor.gif"",""img/Fire_Up_Distractor.gif"",""img/Fire_Up_Distractor.gif"",""img/Fire_Up_Distractor.gif"",""img/Fire_Up_Distractor.gif""]","4","targetDown_distractorsUp"
"","","","","","html-keyboard-response","160","584051","0.0-14.0-0.0-0.73","5fa4a785e741ed1577d6a4f6","619531dcf66c91622fa1b861","6195961d8483eed60ad8664b","null","","null","","","","","main_T1_ITI","","","","",""
"","","","","","visual-search-circle","161","585858","0.0-14.0-0.0-1.73","5fa4a785e741ed1577d6a4f6","619531dcf66c91622fa1b861","6195961d8483eed60ad8664b","802.0999999996275","","s","true","[[594,242],[397,16],[103,73],[5,357],[202,583],[496,526]]","false","6","main_T2_Trial","s","img/Fire_Up_Target.gif","[""img/Fire_Down_Distractor.gif"",""img/Fire_Down_Distractor.gif"",""img/Fire_Down_Distractor.gif"",""img/Fire_Down_Distractor.gif"",""img/Fire_Down_Distractor.gif"",""img/Fire_Down_Distractor.gif"",""img/Fire_Down_Distractor.gif"",""img/Fire_Down_Distractor.gif"",""img/Fire_Down_Distractor.gif"",""img/Fire_Down_Distractor.gif"",""img/Fire_Down_Distractor.gif"",""img/Fire_Down_Distractor.gif""]","6","targetUp_distractorsDown"
"","","","","","html-keyboard-response","162","585860","0.0-14.0-0.0-0.74","5fa4a785e741ed1577d6a4f6","619531dcf66c91622fa1b861","6195961d8483eed60ad8664b","null","","null","","","","","main_T1_ITI","","","","",""
"","","","","","visual-search-circle","163","587601","0.0-14.0-0.0-1.74","5fa4a785e741ed1577d6a4f6","619531dcf66c91622fa1b861","6195961d8483eed60ad8664b","726.2000000011176","","s","true","[[19,407],[407,580],[580,192],[192,19]]","false","4","main_T2_Trial","s","img/Fire_Up_Target.gif","[""img/Fire_Down_Distractor.gif"",""img/Fire_Down_Distractor.gif"",""img/Fire_Down_Distractor.gif"",""img/Fire_Down_Distractor.gif"",""img/Fire_Down_Distractor.gif"",""img/Fire_Down_Distractor.gif"",""img/Fire_Down_Distractor.gif"",""img/Fire_Down_Distractor.gif"",""img/Fire_Down_Distractor.gif"",""img/Fire_Down_Distractor.gif"",""img/Fire_Down_Distractor.gif"",""img/Fire_Down_Distractor.gif""]","4","targetUp_distractorsDown"
"","","","","","html-keyboard-response","164","587603","0.0-14.0-0.0-0.75","5fa4a785e741ed1577d6a4f6","619531dcf66c91622fa1b861","6195961d8483eed60ad8664b","null","","null","","","","","main_T1_ITI","","","","",""
"","","","","","visual-search-circle","165","589381","0.0-14.0-0.0-1.75","5fa4a785e741ed1577d6a4f6","619531dcf66c91622fa1b861","6195961d8483eed60ad8664b","761.2000000011176","","s","true","[[45,141],[7,367],[141,554],[367,592],[554,458],[592,232],[458,45],[232,7]]","false","8","main_T2_Trial","s","img/Fire_Up_Target.gif","[""img/Fire_Down_Distractor.gif"",""img/Fire_Down_Distractor.gif"",""img/Fire_Down_Distractor.gif"",""img/Fire_Down_Distractor.gif"",""img/Fire_Down_Distractor.gif"",""img/Fire_Down_Distractor.gif"",""img/Fire_Down_Distractor.gif"",""img/Fire_Down_Distractor.gif"",""img/Fire_Down_Distractor.gif"",""img/Fire_Down_Distractor.gif"",""img/Fire_Down_Distractor.gif"",""img/Fire_Down_Distractor.gif""]","8","targetUp_distractorsDown"
"","","","","","html-keyboard-response","166","589383","0.0-14.0-0.0-0.76","5fa4a785e741ed1577d6a4f6","619531dcf66c91622fa1b861","6195961d8483eed60ad8664b","null","","null","","","","","main_T1_ITI","","","","",""
"","","","","","visual-search-circle","167","591122","0.0-14.0-0.0-1.76","5fa4a785e741ed1577d6a4f6","619531dcf66c91622fa1b861","6195961d8483eed60ad8664b","727.1999999992549","","s","true","[[154,562],[414,577],[588,383],[544,126],[317,0],[76,99],[4,349]]","false","7","main_T2_Trial","s","img/Fire_Down_Target.gif","[""img/Fire_Up_Distractor.gif"",""img/Fire_Up_Distractor.gif"",""img/Fire_Up_Distractor.gif"",""img/Fire_Up_Distractor.gif"",""img/Fire_Up_Distractor.gif"",""img/Fire_Up_Distractor.gif"",""img/Fire_Up_Distractor.gif"",""img/Fire_Up_Distractor.gif"",""img/Fire_Up_Distractor.gif"",""img/Fire_Up_Distractor.gif"",""img/Fire_Up_Distractor.gif"",""img/Fire_Up_Distractor.gif""]","7","targetDown_distractorsUp"
"","","","","","html-keyboard-response","168","591124","0.0-14.0-0.0-0.77","5fa4a785e741ed1577d6a4f6","619531dcf66c91622fa1b861","6195961d8483eed60ad8664b","null","","null","","","","","main_T1_ITI","","","","",""
"","","","","","visual-search-circle","169","593057","0.0-14.0-0.0-1.77","5fa4a785e741ed1577d6a4f6","619531dcf66c91622fa1b861","6195961d8483eed60ad8664b","918.3000000007451","","s","true","[[268,598],[542,476],[574,177],[331,1],[57,123],[25,422]]","false","6","main_T2_Trial","s","img/Fire_Up_Target.gif","[""img/Fire_Down_Distractor.gif"",""img/Fire_Down_Distractor.gif"",""img/Fire_Down_Distractor.gif"",""img/Fire_Down_Distractor.gif"",""img/Fire_Down_Distractor.gif"",""img/Fire_Down_Distractor.gif"",""img/Fire_Down_Distractor.gif"",""img/Fire_Down_Distractor.gif"",""img/Fire_Down_Distractor.gif"",""img/Fire_Down_Distractor.gif"",""img/Fire_Down_Distractor.gif"",""img/Fire_Down_Distractor.gif""]","6","targetUp_distractorsDown"
"","","","","","html-keyboard-response","170","593059","0.0-14.0-0.0-0.78","5fa4a785e741ed1577d6a4f6","619531dcf66c91622fa1b861","6195961d8483eed60ad8664b","null","","null","","","","","main_T1_ITI","","","","",""
"","","","","","visual-search-circle","171","594826","0.0-14.0-0.0-1.78","5fa4a785e741ed1577d6a4f6","619531dcf66c91622fa1b861","6195961d8483eed60ad8664b","757.0999999996275","","d","true","[[70,107],[18,402],[247,595],[529,492],[581,197],[352,4]]","true","6","main_T2_Trial","d","img/Fire_Up_Target.gif","[""img/Fire_Down_Distractor.gif"",""img/Fire_Down_Distractor.gif"",""img/Fire_Down_Distractor.gif"",""img/Fire_Down_Distractor.gif"",""img/Fire_Down_Distractor.gif"",""img/Fire_Down_Distractor.gif"",""img/Fire_Down_Distractor.gif"",""img/Fire_Down_Distractor.gif"",""img/Fire_Down_Distractor.gif"",""img/Fire_Down_Distractor.gif"",""img/Fire_Down_Distractor.gif"",""img/Fire_Down_Distractor.gif""]","6","targetUp_distractorsDown"
"","","","","","html-keyboard-response","172","597740","0.0-14.0-0.0-0.79","5fa4a785e741ed1577d6a4f6","619531dcf66c91622fa1b861","6195961d8483eed60ad8664b","2913.9000000003725","Wow! You've completed 80 out of 160 trials! </p> <p>  </p><p> Take a quick break, then press any key when you're ready to continue."," ","","","","","main_T1_ITI","","","","",""
"","","","","","visual-search-circle","173","599615","0.0-14.0-0.0-1.79","5fa4a785e741ed1577d6a4f6","619531dcf66c91622fa1b861","6195961d8483eed60ad8664b","856.5999999996275","","d","true","[[0,305],[91,515],[305,599],[515,508],[599,294],[508,84],[294,0],[84,91]]","true","8","main_T2_Trial","d","img/Fire_Down_Target.gif","[""img/Fire_Up_Distractor.gif"",""img/Fire_Up_Distractor.gif"",""img/Fire_Up_Distractor.gif"",""img/Fire_Up_Distractor.gif"",""img/Fire_Up_Distractor.gif"",""img/Fire_Up_Distractor.gif"",""img/Fire_Up_Distractor.gif"",""img/Fire_Up_Distractor.gif"",""img/Fire_Up_Distractor.gif"",""img/Fire_Up_Distractor.gif"",""img/Fire_Up_Distractor.gif"",""img/Fire_Up_Distractor.gif""]","8","targetDown_distractorsUp"
"","","","","","html-keyboard-response","174","599697","0.0-14.0-0.0-0.80","5fa4a785e741ed1577d6a4f6","619531dcf66c91622fa1b861","6195961d8483eed60ad8664b","null","","null","","","","","main_T1_ITI","","","","",""
"","","","","","visual-search-circle","175","601299","0.0-14.0-0.0-1.80","5fa4a785e741ed1577d6a4f6","619531dcf66c91622fa1b861","6195961d8483eed60ad8664b","599.3000000007451","","s","false","[[253,3],[3,346],[346,596],[596,253]]","true","4","main_T2_Trial","d","img/Fire_Up_Target.gif","[""img/Fire_Down_Distractor.gif"",""img/Fire_Down_Distractor.gif"",""img/Fire_Down_Distractor.gif"",""img/Fire_Down_Distractor.gif"",""img/Fire_Down_Distractor.gif"",""img/Fire_Down_Distractor.gif"",""img/Fire_Down_Distractor.gif"",""img/Fire_Down_Distractor.gif"",""img/Fire_Down_Distractor.gif"",""img/Fire_Down_Distractor.gif"",""img/Fire_Down_Distractor.gif"",""img/Fire_Down_Distractor.gif""]","4","targetUp_distractorsDown"
"","","","","","html-keyboard-response","176","601301","0.0-14.0-0.0-0.81","5fa4a785e741ed1577d6a4f6","619531dcf66c91622fa1b861","6195961d8483eed60ad8664b","null","","null","","","","","main_T1_ITI","","","","",""
"","","","","","visual-search-circle","177","603236","0.0-14.0-0.0-1.81","5fa4a785e741ed1577d6a4f6","619531dcf66c91622fa1b861","6195961d8483eed60ad8664b","931.5","","d","false","[[150,40],[10,222],[40,450],[222,589],[450,559],[589,377],[559,150],[377,10]]","false","8","main_T2_Trial","s","img/Fire_Down_Target.gif","[""img/Fire_Up_Distractor.gif"",""img/Fire_Up_Distractor.gif"",""img/Fire_Up_Distractor.gif"",""img/Fire_Up_Distractor.gif"",""img/Fire_Up_Distractor.gif"",""img/Fire_Up_Distractor.gif"",""img/Fire_Up_Distractor.gif"",""img/Fire_Up_Distractor.gif"",""img/Fire_Up_Distractor.gif"",""img/Fire_Up_Distractor.gif"",""img/Fire_Up_Distractor.gif"",""img/Fire_Up_Distractor.gif""]","8","targetDown_distractorsUp"
"","","","","","html-keyboard-response","178","603240","0.0-14.0-0.0-0.82","5fa4a785e741ed1577d6a4f6","619531dcf66c91622fa1b861","6195961d8483eed60ad8664b","null","","null","","","","","main_T1_ITI","","","","",""
"","","","","","visual-search-circle","179","604986","0.0-14.0-0.0-1.82","5fa4a785e741ed1577d6a4f6","619531dcf66c91622fa1b861","6195961d8483eed60ad8664b","735.7999999988824","","d","true","[[45,458],[265,598],[511,512],[598,267],[460,46],[201,16],[17,200]]","true","7","main_T2_Trial","d","img/Fire_Down_Target.gif","[""img/Fire_Up_Distractor.gif"",""img/Fire_Up_Distractor.gif"",""img/Fire_Up_Distractor.gif"",""img/Fire_Up_Distractor.gif"",""img/Fire_Up_Distractor.gif"",""img/Fire_Up_Distractor.gif"",""img/Fire_Up_Distractor.gif"",""img/Fire_Up_Distractor.gif"",""img/Fire_Up_Distractor.gif"",""img/Fire_Up_Distractor.gif"",""img/Fire_Up_Distractor.gif"",""img/Fire_Up_Distractor.gif""]","7","targetDown_distractorsUp"
"","","","","","html-keyboard-response","180","604988","0.0-14.0-0.0-0.83","5fa4a785e741ed1577d6a4f6","619531dcf66c91622fa1b861","6195961d8483eed60ad8664b","null","","null","","","","","main_T1_ITI","","","","",""
"","","","","","visual-search-circle","181","608460","0.0-14.0-0.0-1.83","5fa4a785e741ed1577d6a4f6","619531dcf66c91622fa1b861","6195961d8483eed60ad8664b","2464.800000000745","","d","true","[[536,115],[302,0],[67,110],[6,363],[167,568],[427,571],[591,369]]","true","7","main_T2_Trial","d","img/Fire_Up_Target.gif","[""img/Fire_Down_Distractor.gif"",""img/Fire_Down_Distractor.gif"",""img/Fire_Down_Distractor.gif"",""img/Fire_Down_Distractor.gif"",""img/Fire_Down_Distractor.gif"",""img/Fire_Down_Distractor.gif"",""img/Fire_Down_Distractor.gif"",""img/Fire_Down_Distractor.gif"",""img/Fire_Down_Distractor.gif"",""img/Fire_Down_Distractor.gif"",""img/Fire_Down_Distractor.gif"",""img/Fire_Down_Distractor.gif""]","7","targetUp_distractorsDown"
"","","","","","html-keyboard-response","182","608462","0.0-14.0-0.0-0.84","5fa4a785e741ed1577d6a4f6","619531dcf66c91622fa1b861","6195961d8483eed60ad8664b","null","","null","","","","","main_T1_ITI","","","","",""
"","","","","","visual-search-circle","183","610419","0.0-14.0-0.0-1.84","5fa4a785e741ed1577d6a4f6","619531dcf66c91622fa1b861","6195961d8483eed60ad8664b","952.4000000003725","","d","true","[[253,596],[502,521],[599,279],[470,53],[213,12],[21,188],[39,448]]","true","7","main_T2_Trial","d","img/Fire_Down_Target.gif","[""img/Fire_Up_Distractor.gif"",""img/Fire_Up_Distractor.gif"",""img/Fire_Up_Distractor.gif"",""img/Fire_Up_Distractor.gif"",""img/Fire_Up_Distractor.gif"",""img/Fire_Up_Distractor.gif"",""img/Fire_Up_Distractor.gif"",""img/Fire_Up_Distractor.gif"",""img/Fire_Up_Distractor.gif"",""img/Fire_Up_Distractor.gif"",""img/Fire_Up_Distractor.gif"",""img/Fire_Up_Distractor.gif""]","7","targetDown_distractorsUp"
"","","","","","html-keyboard-response","184","610421","0.0-14.0-0.0-0.85","5fa4a785e741ed1577d6a4f6","619531dcf66c91622fa1b861","6195961d8483eed60ad8664b","null","","null","","","","","main_T1_ITI","","","","",""
"","","","","","visual-search-circle","185","612230","0.0-14.0-0.0-1.85","5fa4a785e741ed1577d6a4f6","619531dcf66c91622fa1b861","6195961d8483eed60ad8664b","804.8999999985099","","s","true","[[593,237],[392,14],[99,77],[6,362],[207,585],[500,522]]","false","6","main_T2_Trial","s","img/Fire_Down_Target.gif","[""img/Fire_Up_Distractor.gif"",""img/Fire_Up_Distractor.gif"",""img/Fire_Up_Distractor.gif"",""img/Fire_Up_Distractor.gif"",""img/Fire_Up_Distractor.gif"",""img/Fire_Up_Distractor.gif"",""img/Fire_Up_Distractor.gif"",""img/Fire_Up_Distractor.gif"",""img/Fire_Up_Distractor.gif"",""img/Fire_Up_Distractor.gif"",""img/Fire_Up_Distractor.gif"",""img/Fire_Up_Distractor.gif""]","6","targetDown_distractorsUp"
"","","","","","html-keyboard-response","186","612232","0.0-14.0-0.0-0.86","5fa4a785e741ed1577d6a4f6","619531dcf66c91622fa1b861","6195961d8483eed60ad8664b","null","","null","","","","","main_T1_ITI","","","","",""
"","","","","","visual-search-circle","187","614198","0.0-14.0-0.0-1.86","5fa4a785e741ed1577d6a4f6","619531dcf66c91622fa1b861","6195961d8483eed60ad8664b","953.1999999992549","","s","true","[[40,150],[77,500],[422,574],[598,268],[362,6]]","false","5","main_T2_Trial","s","img/Fire_Up_Target.gif","[""img/Fire_Down_Distractor.gif"",""img/Fire_Down_Distractor.gif"",""img/Fire_Down_Distractor.gif"",""img/Fire_Down_Distractor.gif"",""img/Fire_Down_Distractor.gif"",""img/Fire_Down_Distractor.gif"",""img/Fire_Down_Distractor.gif"",""img/Fire_Down_Distractor.gif"",""img/Fire_Down_Distractor.gif"",""img/Fire_Down_Distractor.gif"",""img/Fire_Down_Distractor.gif"",""img/Fire_Down_Distractor.gif""]","5","targetUp_distractorsDown"
"","","","","","html-keyboard-response","188","614202","0.0-14.0-0.0-0.87","5fa4a785e741ed1577d6a4f6","619531dcf66c91622fa1b861","6195961d8483eed60ad8664b","null","","null","","","","","main_T1_ITI","","","","",""
"","","","","","visual-search-circle","189","616526","0.0-14.0-0.0-1.87","5fa4a785e741ed1577d6a4f6","619531dcf66c91622fa1b861","6195961d8483eed60ad8664b","1308.5","","d","true","[[500,77],[150,40],[6,362],[268,598],[574,422]]","true","5","main_T2_Trial","d","img/Fire_Up_Target.gif","[""img/Fire_Down_Distractor.gif"",""img/Fire_Down_Distractor.gif"",""img/Fire_Down_Distractor.gif"",""img/Fire_Down_Distractor.gif"",""img/Fire_Down_Distractor.gif"",""img/Fire_Down_Distractor.gif"",""img/Fire_Down_Distractor.gif"",""img/Fire_Down_Distractor.gif"",""img/Fire_Down_Distractor.gif"",""img/Fire_Down_Distractor.gif"",""img/Fire_Down_Distractor.gif"",""img/Fire_Down_Distractor.gif""]","5","targetUp_distractorsDown"
"","","","","","html-keyboard-response","190","616528","0.0-14.0-0.0-0.88","5fa4a785e741ed1577d6a4f6","619531dcf66c91622fa1b861","6195961d8483eed60ad8664b","null","","null","","","","","main_T1_ITI","","","","",""
"","","","","","visual-search-circle","191","620583","0.0-14.0-0.0-1.88","5fa4a785e741ed1577d6a4f6","619531dcf66c91622fa1b861","6195961d8483eed60ad8664b","3051.4000000003725","","d","true","[[492,70],[70,107],[107,529],[529,492]]","true","4","main_T2_Trial","d","img/Fire_Up_Target.gif","[""img/Fire_Down_Distractor.gif"",""img/Fire_Down_Distractor.gif"",""img/Fire_Down_Distractor.gif"",""img/Fire_Down_Distractor.gif"",""img/Fire_Down_Distractor.gif"",""img/Fire_Down_Distractor.gif"",""img/Fire_Down_Distractor.gif"",""img/Fire_Down_Distractor.gif"",""img/Fire_Down_Distractor.gif"",""img/Fire_Down_Distractor.gif"",""img/Fire_Down_Distractor.gif"",""img/Fire_Down_Distractor.gif""]","4","targetUp_distractorsDown"
"","","","","","html-keyboard-response","192","620585","0.0-14.0-0.0-0.89","5fa4a785e741ed1577d6a4f6","619531dcf66c91622fa1b861","6195961d8483eed60ad8664b","null","","null","","","","","main_T1_ITI","","","","",""
"","","","","","visual-search-circle","193","622661","0.0-14.0-0.0-1.89","5fa4a785e741ed1577d6a4f6","619531dcf66c91622fa1b861","6195961d8483eed60ad8664b","1067.5999999996275","","s","true","[[177,574],[574,422],[422,25],[25,177]]","false","4","main_T2_Trial","s","img/Fire_Down_Target.gif","[""img/Fire_Up_Distractor.gif"",""img/Fire_Up_Distractor.gif"",""img/Fire_Up_Distractor.gif"",""img/Fire_Up_Distractor.gif"",""img/Fire_Up_Distractor.gif"",""img/Fire_Up_Distractor.gif"",""img/Fire_Up_Distractor.gif"",""img/Fire_Up_Distractor.gif"",""img/Fire_Up_Distractor.gif"",""img/Fire_Up_Distractor.gif"",""img/Fire_Up_Distractor.gif"",""img/Fire_Up_Distractor.gif""]","4","targetDown_distractorsUp"
"","","","","","html-keyboard-response","194","622663","0.0-14.0-0.0-0.90","5fa4a785e741ed1577d6a4f6","619531dcf66c91622fa1b861","6195961d8483eed60ad8664b","null","","null","","","","","main_T1_ITI","","","","",""
"","","","","","visual-search-circle","195","624797","0.0-14.0-0.0-1.90","5fa4a785e741ed1577d6a4f6","619531dcf66c91622fa1b861","6195961d8483eed60ad8664b","1122.5","","d","true","[[539,480],[480,60],[60,119],[119,539]]","true","4","main_T2_Trial","d","img/Fire_Down_Target.gif","[""img/Fire_Up_Distractor.gif"",""img/Fire_Up_Distractor.gif"",""img/Fire_Up_Distractor.gif"",""img/Fire_Up_Distractor.gif"",""img/Fire_Up_Distractor.gif"",""img/Fire_Up_Distractor.gif"",""img/Fire_Up_Distractor.gif"",""img/Fire_Up_Distractor.gif"",""img/Fire_Up_Distractor.gif"",""img/Fire_Up_Distractor.gif"",""img/Fire_Up_Distractor.gif"",""img/Fire_Up_Distractor.gif""]","4","targetDown_distractorsUp"
"","","","","","html-keyboard-response","196","624802","0.0-14.0-0.0-0.91","5fa4a785e741ed1577d6a4f6","619531dcf66c91622fa1b861","6195961d8483eed60ad8664b","null","","null","","","","","main_T1_ITI","","","","",""
"","","","","","visual-search-circle","197","626654","0.0-14.0-0.0-1.91","5fa4a785e741ed1577d6a4f6","619531dcf66c91622fa1b861","6195961d8483eed60ad8664b","834.8000000007451","","s","false","[[392,585],[585,207],[207,14],[14,392]]","true","4","main_T2_Trial","d","img/Fire_Down_Target.gif","[""img/Fire_Up_Distractor.gif"",""img/Fire_Up_Distractor.gif"",""img/Fire_Up_Distractor.gif"",""img/Fire_Up_Distractor.gif"",""img/Fire_Up_Distractor.gif"",""img/Fire_Up_Distractor.gif"",""img/Fire_Up_Distractor.gif"",""img/Fire_Up_Distractor.gif"",""img/Fire_Up_Distractor.gif"",""img/Fire_Up_Distractor.gif"",""img/Fire_Up_Distractor.gif"",""img/Fire_Up_Distractor.gif""]","4","targetDown_distractorsUp"
"","","","","","html-keyboard-response","198","626656","0.0-14.0-0.0-0.92","5fa4a785e741ed1577d6a4f6","619531dcf66c91622fa1b861","6195961d8483eed60ad8664b","null","","null","","","","","main_T1_ITI","","","","",""
"","","","","","visual-search-circle","199","628395","0.0-14.0-0.0-1.92","5fa4a785e741ed1577d6a4f6","619531dcf66c91622fa1b861","6195961d8483eed60ad8664b","723.8000000007451","","s","true","[[588,382],[562,154],[382,11],[154,37],[11,217],[37,445],[217,588],[445,562]]","false","8","main_T2_Trial","s","img/Fire_Up_Target.gif","[""img/Fire_Down_Distractor.gif"",""img/Fire_Down_Distractor.gif"",""img/Fire_Down_Distractor.gif"",""img/Fire_Down_Distractor.gif"",""img/Fire_Down_Distractor.gif"",""img/Fire_Down_Distractor.gif"",""img/Fire_Down_Distractor.gif"",""img/Fire_Down_Distractor.gif"",""img/Fire_Down_Distractor.gif"",""img/Fire_Down_Distractor.gif"",""img/Fire_Down_Distractor.gif"",""img/Fire_Down_Distractor.gif""]","8","targetUp_distractorsDown"
"","","","","","html-keyboard-response","200","628397","0.0-14.0-0.0-0.93","5fa4a785e741ed1577d6a4f6","619531dcf66c91622fa1b861","6195961d8483eed60ad8664b","null","","null","","","","","main_T1_ITI","","","","",""
"","","","","","visual-search-circle","201","630280","0.0-14.0-0.0-1.93","5fa4a785e741ed1577d6a4f6","619531dcf66c91622fa1b861","6195961d8483eed60ad8664b","867.7999999988824","","d","false","[[440,564],[595,247],[341,2],[30,168],[91,515]]","false","5","main_T2_Trial","s","img/Fire_Down_Target.gif","[""img/Fire_Up_Distractor.gif"",""img/Fire_Up_Distractor.gif"",""img/Fire_Up_Distractor.gif"",""img/Fire_Up_Distractor.gif"",""img/Fire_Up_Distractor.gif"",""img/Fire_Up_Distractor.gif"",""img/Fire_Up_Distractor.gif"",""img/Fire_Up_Distractor.gif"",""img/Fire_Up_Distractor.gif"",""img/Fire_Up_Distractor.gif"",""img/Fire_Up_Distractor.gif"",""img/Fire_Up_Distractor.gif""]","5","targetDown_distractorsUp"
"","","","","","html-keyboard-response","202","630282","0.0-14.0-0.0-0.94","5fa4a785e741ed1577d6a4f6","619531dcf66c91622fa1b861","6195961d8483eed60ad8664b","null","","null","","","","","main_T1_ITI","","","","",""
"","","","","","visual-search-circle","203","631866","0.0-14.0-0.0-1.94","5fa4a785e741ed1577d6a4f6","619531dcf66c91622fa1b861","6195961d8483eed60ad8664b","572.0999999996275","","s","true","[[331,598],[574,422],[542,123],[268,1],[25,177],[57,476]]","false","6","main_T2_Trial","s","img/Fire_Up_Target.gif","[""img/Fire_Down_Distractor.gif"",""img/Fire_Down_Distractor.gif"",""img/Fire_Down_Distractor.gif"",""img/Fire_Down_Distractor.gif"",""img/Fire_Down_Distractor.gif"",""img/Fire_Down_Distractor.gif"",""img/Fire_Down_Distractor.gif"",""img/Fire_Down_Distractor.gif"",""img/Fire_Down_Distractor.gif"",""img/Fire_Down_Distractor.gif"",""img/Fire_Down_Distractor.gif"",""img/Fire_Down_Distractor.gif""]","6","targetUp_distractorsDown"
"","","","","","html-keyboard-response","204","631868","0.0-14.0-0.0-0.95","5fa4a785e741ed1577d6a4f6","619531dcf66c91622fa1b861","6195961d8483eed60ad8664b","null","","null","","","","","main_T1_ITI","","","","",""
"","","","","","visual-search-circle","205","633642","0.0-14.0-0.0-1.95","5fa4a785e741ed1577d6a4f6","619531dcf66c91622fa1b861","6195961d8483eed60ad8664b","759","","d","true","[[526,496],[557,145],[232,7],[1,273],[182,576]]","true","5","main_T2_Trial","d","img/Fire_Down_Target.gif","[""img/Fire_Up_Distractor.gif"",""img/Fire_Up_Distractor.gif"",""img/Fire_Up_Distractor.gif"",""img/Fire_Up_Distractor.gif"",""img/Fire_Up_Distractor.gif"",""img/Fire_Up_Distractor.gif"",""img/Fire_Up_Distractor.gif"",""img/Fire_Up_Distractor.gif"",""img/Fire_Up_Distractor.gif"",""img/Fire_Up_Distractor.gif"",""img/Fire_Up_Distractor.gif"",""img/Fire_Up_Distractor.gif""]","5","targetDown_distractorsUp"
"","","","","","html-keyboard-response","206","633644","0.0-14.0-0.0-0.96","5fa4a785e741ed1577d6a4f6","619531dcf66c91622fa1b861","6195961d8483eed60ad8664b","null","","null","","","","","main_T1_ITI","","","","",""
"","","","","","visual-search-circle","207","635489","0.0-14.0-0.0-1.96","5fa4a785e741ed1577d6a4f6","619531dcf66c91622fa1b861","6195961d8483eed60ad8664b","831.9000000003725","","d","false","[[377,589],[559,450],[589,222],[449,40],[222,10],[40,150],[10,377],[150,559]]","false","8","main_T2_Trial","s","img/Fire_Down_Target.gif","[""img/Fire_Up_Distractor.gif"",""img/Fire_Up_Distractor.gif"",""img/Fire_Up_Distractor.gif"",""img/Fire_Up_Distractor.gif"",""img/Fire_Up_Distractor.gif"",""img/Fire_Up_Distractor.gif"",""img/Fire_Up_Distractor.gif"",""img/Fire_Up_Distractor.gif"",""img/Fire_Up_Distractor.gif"",""img/Fire_Up_Distractor.gif"",""img/Fire_Up_Distractor.gif"",""img/Fire_Up_Distractor.gif""]","8","targetDown_distractorsUp"
"","","","","","html-keyboard-response","208","635491","0.0-14.0-0.0-0.97","5fa4a785e741ed1577d6a4f6","619531dcf66c91622fa1b861","6195961d8483eed60ad8664b","null","","null","","","","","main_T1_ITI","","","","",""
"","","","","","visual-search-circle","209","637683","0.0-14.0-0.0-1.97","5fa4a785e741ed1577d6a4f6","619531dcf66c91622fa1b861","6195961d8483eed60ad8664b","1188.7000000011176","","d","true","[[576,417],[539,119],[263,2],[23,182],[60,480],[336,597]]","true","6","main_T2_Trial","d","img/Fire_Up_Target.gif","[""img/Fire_Down_Distractor.gif"",""img/Fire_Down_Distractor.gif"",""img/Fire_Down_Distractor.gif"",""img/Fire_Down_Distractor.gif"",""img/Fire_Down_Distractor.gif"",""img/Fire_Down_Distractor.gif"",""img/Fire_Down_Distractor.gif"",""img/Fire_Down_Distractor.gif"",""img/Fire_Down_Distractor.gif"",""img/Fire_Down_Distractor.gif"",""img/Fire_Down_Distractor.gif"",""img/Fire_Down_Distractor.gif""]","6","targetUp_distractorsDown"
"","","","","","html-keyboard-response","210","637685","0.0-14.0-0.0-0.98","5fa4a785e741ed1577d6a4f6","619531dcf66c91622fa1b861","6195961d8483eed60ad8664b","null","","null","","","","","main_T1_ITI","","","","",""
"","","","","","visual-search-circle","211","639487","0.0-14.0-0.0-1.98","5fa4a785e741ed1577d6a4f6","619531dcf66c91622fa1b861","6195961d8483eed60ad8664b","799.9000000003725","","s","true","[[536,484],[484,63],[63,115],[115,536]]","false","4","main_T2_Trial","s","img/Fire_Down_Target.gif","[""img/Fire_Up_Distractor.gif"",""img/Fire_Up_Distractor.gif"",""img/Fire_Up_Distractor.gif"",""img/Fire_Up_Distractor.gif"",""img/Fire_Up_Distractor.gif"",""img/Fire_Up_Distractor.gif"",""img/Fire_Up_Distractor.gif"",""img/Fire_Up_Distractor.gif"",""img/Fire_Up_Distractor.gif"",""img/Fire_Up_Distractor.gif"",""img/Fire_Up_Distractor.gif"",""img/Fire_Up_Distractor.gif""]","4","targetDown_distractorsUp"
"","","","","","html-keyboard-response","212","640717","0.0-14.0-0.0-0.99","5fa4a785e741ed1577d6a4f6","619531dcf66c91622fa1b861","6195961d8483eed60ad8664b","1229.800000000745","Wow! You've completed 100 out of 160 trials! </p> <p>  </p><p> Take a quick break, then press any key when you're ready to continue.","s","","","","","main_T1_ITI","","","","",""
"","","","","","visual-search-circle","213","642673","0.0-14.0-0.0-1.99","5fa4a785e741ed1577d6a4f6","619531dcf66c91622fa1b861","6195961d8483eed60ad8664b","947.5999999996275","","s","true","[[45,458],[265,598],[511,512],[598,267],[460,46],[201,16],[17,200]]","false","7","main_T2_Trial","s","img/Fire_Up_Target.gif","[""img/Fire_Down_Distractor.gif"",""img/Fire_Down_Distractor.gif"",""img/Fire_Down_Distractor.gif"",""img/Fire_Down_Distractor.gif"",""img/Fire_Down_Distractor.gif"",""img/Fire_Down_Distractor.gif"",""img/Fire_Down_Distractor.gif"",""img/Fire_Down_Distractor.gif"",""img/Fire_Down_Distractor.gif"",""img/Fire_Down_Distractor.gif"",""img/Fire_Down_Distractor.gif"",""img/Fire_Down_Distractor.gif""]","7","targetUp_distractorsDown"
"","","","","","html-keyboard-response","214","642674","0.0-14.0-0.0-0.100","5fa4a785e741ed1577d6a4f6","619531dcf66c91622fa1b861","6195961d8483eed60ad8664b","null","","null","","","","","main_T1_ITI","","","","",""
"","","","","","visual-search-circle","215","644285","0.0-14.0-0.0-1.100","5fa4a785e741ed1577d6a4f6","619531dcf66c91622fa1b861","6195961d8483eed60ad8664b","602.5999999996275","","s","true","[[57,476],[331,598],[574,422],[542,123],[268,1],[25,177]]","false","6","main_T2_Trial","s","img/Fire_Up_Target.gif","[""img/Fire_Down_Distractor.gif"",""img/Fire_Down_Distractor.gif"",""img/Fire_Down_Distractor.gif"",""img/Fire_Down_Distractor.gif"",""img/Fire_Down_Distractor.gif"",""img/Fire_Down_Distractor.gif"",""img/Fire_Down_Distractor.gif"",""img/Fire_Down_Distractor.gif"",""img/Fire_Down_Distractor.gif"",""img/Fire_Down_Distractor.gif"",""img/Fire_Down_Distractor.gif"",""img/Fire_Down_Distractor.gif""]","6","targetUp_distractorsDown"
"","","","","","html-keyboard-response","216","644287","0.0-14.0-0.0-0.101","5fa4a785e741ed1577d6a4f6","619531dcf66c91622fa1b861","6195961d8483eed60ad8664b","null","","null","","","","","main_T1_ITI","","","","",""
