"success","timeout","failed_images","failed_audio","failed_video","trial_type","trial_index","time_elapsed","internal_node_id","subject_id","study_id","session_id","rt","stimulus","response","correct","locations","target_present","set_size","task","correct_response","target","foilCM","setSizeCM","searchCondition"
"true","false","[]","[]","[]","preload","0","277637","0.0-0.0","5fb754ca012e372845878671","619531dcf66c91622fa1b861","619596187bd028d33946da48","","","","","","","","","","","","",""
"true","","","","","fullscreen","1","287187","0.0-1.0","5fb754ca012e372845878671","619531dcf66c91622fa1b861","619596187bd028d33946da48","","","","","","","","","","","","",""
"","","","","","html-keyboard-response","2","295995","0.0-2.0","5fb754ca012e372845878671","619531dcf66c91622fa1b861","619596187bd028d33946da48","8806.5","What a beautiful Wednesday to do some awesome science! </p> <p>  </p><p> </p>
    By completing this survey or questionnaire, you are consenting to be in this research study. </p>
    Your participation is voluntary and you can stop at any time.
    <p> [Press any key to continue.] </p>
    
    ","enter","","","","","","","","","",""
"","","","","","video-keyboard-response","3","362867","0.0-3.0","5fb754ca012e372845878671","619531dcf66c91622fa1b861","619596187bd028d33946da48","66867.69999998808","[""video/TaskInstructions.mp4""]","enter","","","","","","","","","",""
"","","","","","html-keyboard-response","4","369241","0.0-4.0","5fb754ca012e372845878671","619531dcf66c91622fa1b861","619596187bd028d33946da48","6372.5","
    <p>First, we're going to do a few practice trials to make sure you understand the task. You will recieve feedback on each trial. </p>
    <p>[Press any key to begin the familiarization phase.]</p>
    ","enter","","","","","","","","","",""
"","","","","","visual-search-circle","5","381021","0.0-5.0-0.0","5fb754ca012e372845878671","619531dcf66c91622fa1b861","619596187bd028d33946da48","10706.90000000596","","d","true","[[1,273],[273,598],[598,326],[326,1]]","true","4","training","d","","","",""
"","","","","","html-keyboard-response","6","385608","0.0-6.0","5fb754ca012e372845878671","619531dcf66c91622fa1b861","619596187bd028d33946da48","4584.699999988079"," <div style='float: center; '><img src='img/feedbackRight.png'></img> </div> ","enter","","","","","","","","","",""
"","","","","","visual-search-circle","7","391683","0.0-7.0-0.0","5fb754ca012e372845878671","619531dcf66c91622fa1b861","619596187bd028d33946da48","5066.5","","s","true","[[115,536],[536,484],[484,63],[63,115]]","false","4","training","s","","","",""
"","","","","","html-keyboard-response","8","393728","0.0-8.0","5fb754ca012e372845878671","619531dcf66c91622fa1b861","619596187bd028d33946da48","2044.0999999940395"," <div style='float: center; '><img src='img/feedbackRight.png'></img> </div> ","enter","","","","","","","","","",""
"","","","","","visual-search-circle","9","399128","0.0-9.0-0.0","5fb754ca012e372845878671","619531dcf66c91622fa1b861","619596187bd028d33946da48","4389.79999999702","","s","true","[[123,542],[422,574],[598,331],[476,57],[177,25],[1,268]]","false","6","training","s","","","",""
"","","","","","html-keyboard-response","10","400417","0.0-10.0","5fb754ca012e372845878671","619531dcf66c91622fa1b861","619596187bd028d33946da48","1286.2000000029802"," <div style='float: center; '><img src='img/feedbackRight.png'></img> </div> ","enter","","","","","","","","","",""
"","","","","","visual-search-circle","11","402938","0.0-11.0-0.0","5fb754ca012e372845878671","619531dcf66c91622fa1b861","619596187bd028d33946da48","1501.0999999940395","","d","true","[[284,0],[77,99],[0,315],[99,522],[315,599],[522,500],[599,284],[500,77]]","true","8","training","d","","","",""
"","","","","","html-keyboard-response","12","403784","0.0-12.0","5fb754ca012e372845878671","619531dcf66c91622fa1b861","619596187bd028d33946da48","844.5999999940395"," <div style='float: center; '><img src='img/feedbackRight.png'></img> </div> ","enter","","","","","","","","","",""
"","","","","","video-keyboard-response","13","419098","0.0-13.0","5fb754ca012e372845878671","619531dcf66c91622fa1b861","619596187bd028d33946da48","15311.10000000894","[""video/endTraining.mp4""]","enter","","","","","","","","","",""
"","","","","","html-keyboard-response","14","419102","0.0-14.0-0.0-0.0","5fb754ca012e372845878671","619531dcf66c91622fa1b861","619596187bd028d33946da48","null","","null","","","","","main_T1_ITI","","","","",""
"","","","","","visual-search-circle","15","427024","0.0-14.0-0.0-1.0","5fb754ca012e372845878671","619531dcf66c91622fa1b861","619596187bd028d33946da48","6903.100000008941","","s","true","[[7,367],[212,586],[504,519],[592,232],[387,13],[95,80]]","false","6","main_T2_Trial","s","img/Fire_Up_Target.gif","[""img/Fire_Down_Distractor.gif"",""img/Fire_Down_Distractor.gif"",""img/Fire_Down_Distractor.gif"",""img/Fire_Down_Distractor.gif"",""img/Fire_Down_Distractor.gif"",""img/Fire_Down_Distractor.gif"",""img/Fire_Down_Distractor.gif"",""img/Fire_Down_Distractor.gif"",""img/Fire_Down_Distractor.gif"",""img/Fire_Down_Distractor.gif"",""img/Fire_Down_Distractor.gif"",""img/Fire_Down_Distractor.gif""]","6","targetUp_distractorsDown"
"","","","","","html-keyboard-response","16","427029","0.0-14.0-0.0-0.1","5fb754ca012e372845878671","619531dcf66c91622fa1b861","619596187bd028d33946da48","null","","null","","","","","main_T1_ITI","","","","",""
"","","","","","visual-search-circle","17","429546","0.0-14.0-0.0-1.1","5fb754ca012e372845878671","619531dcf66c91622fa1b861","619596187bd028d33946da48","1502.6000000089407","","d","true","[[4,247],[107,529],[402,581],[595,352],[492,70],[197,18]]","true","6","main_T2_Trial","d","img/Fire_Up_Target.gif","[""img/Fire_Down_Distractor.gif"",""img/Fire_Down_Distractor.gif"",""img/Fire_Down_Distractor.gif"",""img/Fire_Down_Distractor.gif"",""img/Fire_Down_Distractor.gif"",""img/Fire_Down_Distractor.gif"",""img/Fire_Down_Distractor.gif"",""img/Fire_Down_Distractor.gif"",""img/Fire_Down_Distractor.gif"",""img/Fire_Down_Distractor.gif"",""img/Fire_Down_Distractor.gif"",""img/Fire_Down_Distractor.gif""]","6","targetUp_distractorsDown"
"","","","","","html-keyboard-response","18","429553","0.0-14.0-0.0-0.2","5fb754ca012e372845878671","619531dcf66c91622fa1b861","619596187bd028d33946da48","null","","null","","","","","main_T1_ITI","","","","",""
"","","","","","visual-search-circle","19","432392","0.0-14.0-0.0-1.2","5fb754ca012e372845878671","619531dcf66c91622fa1b861","619596187bd028d33946da48","1822.199999988079","","s","true","[[463,551],[593,362],[551,136],[362,6],[136,48],[6,237],[48,463],[237,593]]","false","8","main_T2_Trial","s","img/Fire_Down_Target.gif","[""img/Fire_Up_Distractor.gif"",""img/Fire_Up_Distractor.gif"",""img/Fire_Up_Distractor.gif"",""img/Fire_Up_Distractor.gif"",""img/Fire_Up_Distractor.gif"",""img/Fire_Up_Distractor.gif"",""img/Fire_Up_Distractor.gif"",""img/Fire_Up_Distractor.gif"",""img/Fire_Up_Distractor.gif"",""img/Fire_Up_Distractor.gif"",""img/Fire_Up_Distractor.gif"",""img/Fire_Up_Distractor.gif""]","8","targetDown_distractorsUp"
"","","","","","html-keyboard-response","20","432395","0.0-14.0-0.0-0.3","5fb754ca012e372845878671","619531dcf66c91622fa1b861","619596187bd028d33946da48","null","","null","","","","","main_T1_ITI","","","","",""
"","","","","","visual-search-circle","21","439529","0.0-14.0-0.0-1.3","5fb754ca012e372845878671","619531dcf66c91622fa1b861","619596187bd028d33946da48","6130","","d","true","[[578,412],[412,21],[21,187],[187,578]]","true","4","main_T2_Trial","d","img/Fire_Up_Target.gif","[""img/Fire_Down_Distractor.gif"",""img/Fire_Down_Distractor.gif"",""img/Fire_Down_Distractor.gif"",""img/Fire_Down_Distractor.gif"",""img/Fire_Down_Distractor.gif"",""img/Fire_Down_Distractor.gif"",""img/Fire_Down_Distractor.gif"",""img/Fire_Down_Distractor.gif"",""img/Fire_Down_Distractor.gif"",""img/Fire_Down_Distractor.gif"",""img/Fire_Down_Distractor.gif"",""img/Fire_Down_Distractor.gif""]","4","targetUp_distractorsDown"
"","","","","","html-keyboard-response","22","439543","0.0-14.0-0.0-0.4","5fb754ca012e372845878671","619531dcf66c91622fa1b861","619596187bd028d33946da48","null","","null","","","","","main_T1_ITI","","","","",""
"","","","","","visual-search-circle","23","444762","0.0-14.0-0.0-1.4","5fb754ca012e372845878671","619531dcf66c91622fa1b861","619596187bd028d33946da48","4200.5999999940395","","s","true","[[476,542],[596,346],[542,123],[346,3],[123,57],[3,253],[57,476],[253,596]]","false","8","main_T2_Trial","s","img/Fire_Up_Target.gif","[""img/Fire_Down_Distractor.gif"",""img/Fire_Down_Distractor.gif"",""img/Fire_Down_Distractor.gif"",""img/Fire_Down_Distractor.gif"",""img/Fire_Down_Distractor.gif"",""img/Fire_Down_Distractor.gif"",""img/Fire_Down_Distractor.gif"",""img/Fire_Down_Distractor.gif"",""img/Fire_Down_Distractor.gif"",""img/Fire_Down_Distractor.gif"",""img/Fire_Down_Distractor.gif"",""img/Fire_Down_Distractor.gif""]","8","targetUp_distractorsDown"
"","","","","","html-keyboard-response","24","444765","0.0-14.0-0.0-0.5","5fb754ca012e372845878671","619531dcf66c91622fa1b861","619596187bd028d33946da48","null","","null","","","","","main_T1_ITI","","","","",""
"","","","","","visual-search-circle","25","447593","0.0-14.0-0.0-1.5","5fb754ca012e372845878671","619531dcf66c91622fa1b861","619596187bd028d33946da48","1806.7999999970198","","d","true","[[436,32],[136,48],[0,315],[163,567],[463,551],[599,284]]","true","6","main_T2_Trial","d","img/Fire_Up_Target.gif","[""img/Fire_Down_Distractor.gif"",""img/Fire_Down_Distractor.gif"",""img/Fire_Down_Distractor.gif"",""img/Fire_Down_Distractor.gif"",""img/Fire_Down_Distractor.gif"",""img/Fire_Down_Distractor.gif"",""img/Fire_Down_Distractor.gif"",""img/Fire_Down_Distractor.gif"",""img/Fire_Down_Distractor.gif"",""img/Fire_Down_Distractor.gif"",""img/Fire_Down_Distractor.gif"",""img/Fire_Down_Distractor.gif""]","6","targetUp_distractorsDown"
"","","","","","html-keyboard-response","26","447613","0.0-14.0-0.0-0.6","5fb754ca012e372845878671","619531dcf66c91622fa1b861","619596187bd028d33946da48","null","","null","","","","","main_T1_ITI","","","","",""
"","","","","","visual-search-circle","27","453728","0.0-14.0-0.0-1.6","5fb754ca012e372845878671","619531dcf66c91622fa1b861","619596187bd028d33946da48","5094.70000000298","","s","true","[[187,21],[0,320],[227,591],[554,458],[529,107]]","false","5","main_T2_Trial","s","img/Fire_Down_Target.gif","[""img/Fire_Up_Distractor.gif"",""img/Fire_Up_Distractor.gif"",""img/Fire_Up_Distractor.gif"",""img/Fire_Up_Distractor.gif"",""img/Fire_Up_Distractor.gif"",""img/Fire_Up_Distractor.gif"",""img/Fire_Up_Distractor.gif"",""img/Fire_Up_Distractor.gif"",""img/Fire_Up_Distractor.gif"",""img/Fire_Up_Distractor.gif"",""img/Fire_Up_Distractor.gif"",""img/Fire_Up_Distractor.gif""]","5","targetDown_distractorsUp"
"","","","","","html-keyboard-response","28","453730","0.0-14.0-0.0-0.7","5fb754ca012e372845878671","619531dcf66c91622fa1b861","619596187bd028d33946da48","null","","null","","","","","main_T1_ITI","","","","",""
"","","","","","visual-search-circle","29","460499","0.0-14.0-0.0-1.7","5fb754ca012e372845878671","619531dcf66c91622fa1b861","619596187bd028d33946da48","5757.70000000298","","d","true","[[268,598],[488,533],[598,331],[533,111],[331,1],[111,66],[1,268],[66,488]]","true","8","main_T2_Trial","d","img/Fire_Down_Target.gif","[""img/Fire_Up_Distractor.gif"",""img/Fire_Up_Distractor.gif"",""img/Fire_Up_Distractor.gif"",""img/Fire_Up_Distractor.gif"",""img/Fire_Up_Distractor.gif"",""img/Fire_Up_Distractor.gif"",""img/Fire_Up_Distractor.gif"",""img/Fire_Up_Distractor.gif"",""img/Fire_Up_Distractor.gif"",""img/Fire_Up_Distractor.gif"",""img/Fire_Up_Distractor.gif"",""img/Fire_Up_Distractor.gif""]","8","targetDown_distractorsUp"
"","","","","","html-keyboard-response","30","460503","0.0-14.0-0.0-0.8","5fb754ca012e372845878671","619531dcf66c91622fa1b861","619596187bd028d33946da48","null","","null","","","","","main_T1_ITI","","","","",""
"","","","","","visual-search-circle","31","463537","0.0-14.0-0.0-1.8","5fb754ca012e372845878671","619531dcf66c91622fa1b861","619596187bd028d33946da48","2025.5","","d","true","[[492,529],[595,247],[402,18],[107,70],[4,352],[197,581]]","true","6","main_T2_Trial","d","img/Fire_Up_Target.gif","[""img/Fire_Down_Distractor.gif"",""img/Fire_Down_Distractor.gif"",""img/Fire_Down_Distractor.gif"",""img/Fire_Down_Distractor.gif"",""img/Fire_Down_Distractor.gif"",""img/Fire_Down_Distractor.gif"",""img/Fire_Down_Distractor.gif"",""img/Fire_Down_Distractor.gif"",""img/Fire_Down_Distractor.gif"",""img/Fire_Down_Distractor.gif"",""img/Fire_Down_Distractor.gif"",""img/Fire_Down_Distractor.gif""]","6","targetUp_distractorsDown"
"","","","","","html-keyboard-response","32","463550","0.0-14.0-0.0-0.9","5fb754ca012e372845878671","619531dcf66c91622fa1b861","619596187bd028d33946da48","null","","null","","","","","main_T1_ITI","","","","",""
"","","","","","visual-search-circle","33","469576","0.0-14.0-0.0-1.9","5fb754ca012e372845878671","619531dcf66c91622fa1b861","619596187bd028d33946da48","5020.70000000298","","s","true","[[564,159],[247,4],[2,258],[168,569],[515,508]]","false","5","main_T2_Trial","s","img/Fire_Down_Target.gif","[""img/Fire_Up_Distractor.gif"",""img/Fire_Up_Distractor.gif"",""img/Fire_Up_Distractor.gif"",""img/Fire_Up_Distractor.gif"",""img/Fire_Up_Distractor.gif"",""img/Fire_Up_Distractor.gif"",""img/Fire_Up_Distractor.gif"",""img/Fire_Up_Distractor.gif"",""img/Fire_Up_Distractor.gif"",""img/Fire_Up_Distractor.gif"",""img/Fire_Up_Distractor.gif"",""img/Fire_Up_Distractor.gif""]","5","targetDown_distractorsUp"
"","","","","","html-keyboard-response","34","469588","0.0-14.0-0.0-0.10","5fb754ca012e372845878671","619531dcf66c91622fa1b861","619596187bd028d33946da48","null","","null","","","","","main_T1_ITI","","","","",""
"","","","","","visual-search-circle","35","474538","0.0-14.0-0.0-1.10","5fb754ca012e372845878671","619531dcf66c91622fa1b861","619596187bd028d33946da48","3940.1000000089407","","d","true","[[331,598],[552,461],[583,203],[401,17],[142,44],[2,264],[86,510]]","true","7","main_T2_Trial","d","img/Fire_Down_Target.gif","[""img/Fire_Up_Distractor.gif"",""img/Fire_Up_Distractor.gif"",""img/Fire_Up_Distractor.gif"",""img/Fire_Up_Distractor.gif"",""img/Fire_Up_Distractor.gif"",""img/Fire_Up_Distractor.gif"",""img/Fire_Up_Distractor.gif"",""img/Fire_Up_Distractor.gif"",""img/Fire_Up_Distractor.gif"",""img/Fire_Up_Distractor.gif"",""img/Fire_Up_Distractor.gif"",""img/Fire_Up_Distractor.gif""]","7","targetDown_distractorsUp"
"","","","","","html-keyboard-response","36","474561","0.0-14.0-0.0-0.11","5fb754ca012e372845878671","619531dcf66c91622fa1b861","619596187bd028d33946da48","null","","null","","","","","main_T1_ITI","","","","",""
"","","","","","visual-search-circle","37","477064","0.0-14.0-0.0-1.11","5fb754ca012e372845878671","619531dcf66c91622fa1b861","619596187bd028d33946da48","1486.3999999910593","","d","true","[[103,73],[73,496],[496,526],[526,103]]","true","4","main_T2_Trial","d","img/Fire_Up_Target.gif","[""img/Fire_Down_Distractor.gif"",""img/Fire_Down_Distractor.gif"",""img/Fire_Down_Distractor.gif"",""img/Fire_Down_Distractor.gif"",""img/Fire_Down_Distractor.gif"",""img/Fire_Down_Distractor.gif"",""img/Fire_Down_Distractor.gif"",""img/Fire_Down_Distractor.gif"",""img/Fire_Down_Distractor.gif"",""img/Fire_Down_Distractor.gif"",""img/Fire_Down_Distractor.gif"",""img/Fire_Down_Distractor.gif""]","4","targetUp_distractorsDown"
"","","","","","html-keyboard-response","38","477079","0.0-14.0-0.0-0.12","5fb754ca012e372845878671","619531dcf66c91622fa1b861","619596187bd028d33946da48","null","","null","","","","","main_T1_ITI","","","","",""
"","","","","","visual-search-circle","39","484521","0.0-14.0-0.0-1.12","5fb754ca012e372845878671","619531dcf66c91622fa1b861","619596187bd028d33946da48","6429","","d","true","[[554,458],[529,107],[187,21],[0,320],[227,591]]","true","5","main_T2_Trial","d","img/Fire_Down_Target.gif","[""img/Fire_Up_Distractor.gif"",""img/Fire_Up_Distractor.gif"",""img/Fire_Up_Distractor.gif"",""img/Fire_Up_Distractor.gif"",""img/Fire_Up_Distractor.gif"",""img/Fire_Up_Distractor.gif"",""img/Fire_Up_Distractor.gif"",""img/Fire_Up_Distractor.gif"",""img/Fire_Up_Distractor.gif"",""img/Fire_Up_Distractor.gif"",""img/Fire_Up_Distractor.gif"",""img/Fire_Up_Distractor.gif""]","5","targetDown_distractorsUp"
"","","","","","html-keyboard-response","40","484524","0.0-14.0-0.0-0.13","5fb754ca012e372845878671","619531dcf66c91622fa1b861","619596187bd028d33946da48","null","","null","","","","","main_T1_ITI","","","","",""
"","","","","","visual-search-circle","41","488018","0.0-14.0-0.0-1.13","5fb754ca012e372845878671","619531dcf66c91622fa1b861","619596187bd028d33946da48","2480.1000000089407","","d","true","[[60,480],[336,597],[576,417],[539,119],[263,2],[23,182]]","true","6","main_T2_Trial","d","img/Fire_Down_Target.gif","[""img/Fire_Up_Distractor.gif"",""img/Fire_Up_Distractor.gif"",""img/Fire_Up_Distractor.gif"",""img/Fire_Up_Distractor.gif"",""img/Fire_Up_Distractor.gif"",""img/Fire_Up_Distractor.gif"",""img/Fire_Up_Distractor.gif"",""img/Fire_Up_Distractor.gif"",""img/Fire_Up_Distractor.gif"",""img/Fire_Up_Distractor.gif"",""img/Fire_Up_Distractor.gif"",""img/Fire_Up_Distractor.gif""]","6","targetDown_distractorsUp"
"","","","","","html-keyboard-response","42","488028","0.0-14.0-0.0-0.14","5fb754ca012e372845878671","619531dcf66c91622fa1b861","619596187bd028d33946da48","null","","null","","","","","main_T1_ITI","","","","",""
"","","","","","visual-search-circle","43","492184","0.0-14.0-0.0-1.14","5fb754ca012e372845878671","619531dcf66c91622fa1b861","619596187bd028d33946da48","3148","","s","false","[[522,500],[585,207],[362,6],[77,99],[14,392],[237,593]]","true","6","main_T2_Trial","d","img/Fire_Up_Target.gif","[""img/Fire_Down_Distractor.gif"",""img/Fire_Down_Distractor.gif"",""img/Fire_Down_Distractor.gif"",""img/Fire_Down_Distractor.gif"",""img/Fire_Down_Distractor.gif"",""img/Fire_Down_Distractor.gif"",""img/Fire_Down_Distractor.gif"",""img/Fire_Down_Distractor.gif"",""img/Fire_Down_Distractor.gif"",""img/Fire_Down_Distractor.gif"",""img/Fire_Down_Distractor.gif"",""img/Fire_Down_Distractor.gif""]","6","targetUp_distractorsDown"
"","","","","","html-keyboard-response","44","492186","0.0-14.0-0.0-0.15","5fb754ca012e372845878671","619531dcf66c91622fa1b861","619596187bd028d33946da48","null","","null","","","","","main_T1_ITI","","","","",""
"","","","","","visual-search-circle","45","497528","0.0-14.0-0.0-1.15","5fb754ca012e372845878671","619531dcf66c91622fa1b861","619596187bd028d33946da48","4326.5999999940395","","s","true","[[512,512],[598,266],[459,45],[200,16],[16,200],[45,459],[266,598]]","false","7","main_T2_Trial","s","img/Fire_Up_Target.gif","[""img/Fire_Down_Distractor.gif"",""img/Fire_Down_Distractor.gif"",""img/Fire_Down_Distractor.gif"",""img/Fire_Down_Distractor.gif"",""img/Fire_Down_Distractor.gif"",""img/Fire_Down_Distractor.gif"",""img/Fire_Down_Distractor.gif"",""img/Fire_Down_Distractor.gif"",""img/Fire_Down_Distractor.gif"",""img/Fire_Down_Distractor.gif"",""img/Fire_Down_Distractor.gif"",""img/Fire_Down_Distractor.gif""]","7","targetUp_distractorsDown"
"","","","","","html-keyboard-response","46","497545","0.0-14.0-0.0-0.16","5fb754ca012e372845878671","619531dcf66c91622fa1b861","619596187bd028d33946da48","null","","null","","","","","main_T1_ITI","","","","",""
"","","","","","visual-search-circle","47","500132","0.0-14.0-0.0-1.16","5fb754ca012e372845878671","619531dcf66c91622fa1b861","619596187bd028d33946da48","1566.2000000029802","","d","true","[[562,154],[382,11],[154,37],[11,217],[37,445],[217,588],[445,562],[588,382]]","true","8","main_T2_Trial","d","img/Fire_Up_Target.gif","[""img/Fire_Down_Distractor.gif"",""img/Fire_Down_Distractor.gif"",""img/Fire_Down_Distractor.gif"",""img/Fire_Down_Distractor.gif"",""img/Fire_Down_Distractor.gif"",""img/Fire_Down_Distractor.gif"",""img/Fire_Down_Distractor.gif"",""img/Fire_Down_Distractor.gif"",""img/Fire_Down_Distractor.gif"",""img/Fire_Down_Distractor.gif"",""img/Fire_Down_Distractor.gif"",""img/Fire_Down_Distractor.gif""]","8","targetUp_distractorsDown"
"","","","","","html-keyboard-response","48","500135","0.0-14.0-0.0-0.17","5fb754ca012e372845878671","619531dcf66c91622fa1b861","619596187bd028d33946da48","null","","null","","","","","main_T1_ITI","","","","",""
"","","","","","visual-search-circle","49","504696","0.0-14.0-0.0-1.17","5fb754ca012e372845878671","619531dcf66c91622fa1b861","619596187bd028d33946da48","3552.2999999970198","","s","true","[[63,115],[2,336],[115,536],[336,597],[536,484],[597,263],[484,63],[263,2]]","false","8","main_T2_Trial","s","img/Fire_Down_Target.gif","[""img/Fire_Up_Distractor.gif"",""img/Fire_Up_Distractor.gif"",""img/Fire_Up_Distractor.gif"",""img/Fire_Up_Distractor.gif"",""img/Fire_Up_Distractor.gif"",""img/Fire_Up_Distractor.gif"",""img/Fire_Up_Distractor.gif"",""img/Fire_Up_Distractor.gif"",""img/Fire_Up_Distractor.gif"",""img/Fire_Up_Distractor.gif"",""img/Fire_Up_Distractor.gif"",""img/Fire_Up_Distractor.gif""]","8","targetDown_distractorsUp"
"","","","","","html-keyboard-response","50","504699","0.0-14.0-0.0-0.18","5fb754ca012e372845878671","619531dcf66c91622fa1b861","619596187bd028d33946da48","null","","null","","","","","main_T1_ITI","","","","",""
"","","","","","visual-search-circle","51","508376","0.0-14.0-0.0-1.18","5fb754ca012e372845878671","619531dcf66c91622fa1b861","619596187bd028d33946da48","2667.300000011921","","d","true","[[476,57],[123,57],[14,392],[299,600],[585,392]]","true","5","main_T2_Trial","d","img/Fire_Up_Target.gif","[""img/Fire_Down_Distractor.gif"",""img/Fire_Down_Distractor.gif"",""img/Fire_Down_Distractor.gif"",""img/Fire_Down_Distractor.gif"",""img/Fire_Down_Distractor.gif"",""img/Fire_Down_Distractor.gif"",""img/Fire_Down_Distractor.gif"",""img/Fire_Down_Distractor.gif"",""img/Fire_Down_Distractor.gif"",""img/Fire_Down_Distractor.gif"",""img/Fire_Down_Distractor.gif"",""img/Fire_Down_Distractor.gif""]","5","targetUp_distractorsDown"
"","","","","","html-keyboard-response","52","516043","0.0-14.0-0.0-0.19","5fb754ca012e372845878671","619531dcf66c91622fa1b861","619596187bd028d33946da48","7665.0999999940395","Wow! You've completed 20 out of 160 trials! </p> <p>  </p><p> Take a quick break, then press any key when you're ready to continue.","enter","","","","","main_T1_ITI","","","","",""
"","","","","","visual-search-circle","53","520640","0.0-14.0-0.0-1.19","5fb754ca012e372845878671","619531dcf66c91622fa1b861","619596187bd028d33946da48","3586.7000000029802","","s","true","[[598,331],[422,25],[77,99],[40,449],[362,593]]","false","5","main_T2_Trial","s","img/Fire_Down_Target.gif","[""img/Fire_Up_Distractor.gif"",""img/Fire_Up_Distractor.gif"",""img/Fire_Up_Distractor.gif"",""img/Fire_Up_Distractor.gif"",""img/Fire_Up_Distractor.gif"",""img/Fire_Up_Distractor.gif"",""img/Fire_Up_Distractor.gif"",""img/Fire_Up_Distractor.gif"",""img/Fire_Up_Distractor.gif"",""img/Fire_Up_Distractor.gif"",""img/Fire_Up_Distractor.gif"",""img/Fire_Up_Distractor.gif""]","5","targetDown_distractorsUp"
"","","","","","html-keyboard-response","54","520642","0.0-14.0-0.0-0.20","5fb754ca012e372845878671","619531dcf66c91622fa1b861","619596187bd028d33946da48","null","","null","","","","","main_T1_ITI","","","","",""
"","","","","","visual-search-circle","55","524952","0.0-14.0-0.0-1.20","5fb754ca012e372845878671","619531dcf66c91622fa1b861","619596187bd028d33946da48","3291","","s","true","[[289,599],[504,519],[599,310],[519,95],[310,0],[95,80],[0,289],[80,504]]","false","8","main_T2_Trial","s","img/Fire_Up_Target.gif","[""img/Fire_Down_Distractor.gif"",""img/Fire_Down_Distractor.gif"",""img/Fire_Down_Distractor.gif"",""img/Fire_Down_Distractor.gif"",""img/Fire_Down_Distractor.gif"",""img/Fire_Down_Distractor.gif"",""img/Fire_Down_Distractor.gif"",""img/Fire_Down_Distractor.gif"",""img/Fire_Down_Distractor.gif"",""img/Fire_Down_Distractor.gif"",""img/Fire_Down_Distractor.gif"",""img/Fire_Down_Distractor.gif""]","8","targetUp_distractorsDown"
"","","","","","html-keyboard-response","56","524955","0.0-14.0-0.0-0.21","5fb754ca012e372845878671","619531dcf66c91622fa1b861","619596187bd028d33946da48","null","","null","","","","","main_T1_ITI","","","","",""
"","","","","","visual-search-circle","57","528514","0.0-14.0-0.0-1.21","5fb754ca012e372845878671","619531dcf66c91622fa1b861","619596187bd028d33946da48","2551.0999999940395","","s","true","[[300,0],[40,150],[40,450],[299,600],[559,450],[559,150]]","false","6","main_T2_Trial","s","img/Fire_Down_Target.gif","[""img/Fire_Up_Distractor.gif"",""img/Fire_Up_Distractor.gif"",""img/Fire_Up_Distractor.gif"",""img/Fire_Up_Distractor.gif"",""img/Fire_Up_Distractor.gif"",""img/Fire_Up_Distractor.gif"",""img/Fire_Up_Distractor.gif"",""img/Fire_Up_Distractor.gif"",""img/Fire_Up_Distractor.gif"",""img/Fire_Up_Distractor.gif"",""img/Fire_Up_Distractor.gif"",""img/Fire_Up_Distractor.gif""]","6","targetDown_distractorsUp"
"","","","","","html-keyboard-response","58","528517","0.0-14.0-0.0-0.22","5fb754ca012e372845878671","619531dcf66c91622fa1b861","619596187bd028d33946da48","null","","null","","","","","main_T1_ITI","","","","",""
"","","","","","visual-search-circle","59","530824","0.0-14.0-0.0-1.22","5fb754ca012e372845878671","619531dcf66c91622fa1b861","619596187bd028d33946da48","1287.2999999970198","","d","true","[[559,450],[589,222],[449,40],[222,10],[40,150],[10,377],[150,559],[377,589]]","true","8","main_T2_Trial","d","img/Fire_Down_Target.gif","[""img/Fire_Up_Distractor.gif"",""img/Fire_Up_Distractor.gif"",""img/Fire_Up_Distractor.gif"",""img/Fire_Up_Distractor.gif"",""img/Fire_Up_Distractor.gif"",""img/Fire_Up_Distractor.gif"",""img/Fire_Up_Distractor.gif"",""img/Fire_Up_Distractor.gif"",""img/Fire_Up_Distractor.gif"",""img/Fire_Up_Distractor.gif"",""img/Fire_Up_Distractor.gif"",""img/Fire_Up_Distractor.gif""]","8","targetDown_distractorsUp"
"","","","","","html-keyboard-response","60","530834","0.0-14.0-0.0-0.23","5fb754ca012e372845878671","619531dcf66c91622fa1b861","619596187bd028d33946da48","null","","null","","","","","main_T1_ITI","","","","",""
"","","","","","visual-search-circle","61","535306","0.0-14.0-0.0-1.23","5fb754ca012e372845878671","619531dcf66c91622fa1b861","619596187bd028d33946da48","3456.1000000089407","","s","true","[[23,417],[263,597],[539,480],[576,182],[336,2],[60,119]]","false","6","main_T2_Trial","s","img/Fire_Down_Target.gif","[""img/Fire_Up_Distractor.gif"",""img/Fire_Up_Distractor.gif"",""img/Fire_Up_Distractor.gif"",""img/Fire_Up_Distractor.gif"",""img/Fire_Up_Distractor.gif"",""img/Fire_Up_Distractor.gif"",""img/Fire_Up_Distractor.gif"",""img/Fire_Up_Distractor.gif"",""img/Fire_Up_Distractor.gif"",""img/Fire_Up_Distractor.gif"",""img/Fire_Up_Distractor.gif"",""img/Fire_Up_Distractor.gif""]","6","targetDown_distractorsUp"
"","","","","","html-keyboard-response","62","535308","0.0-14.0-0.0-0.24","5fb754ca012e372845878671","619531dcf66c91622fa1b861","619596187bd028d33946da48","null","","null","","","","","main_T1_ITI","","","","",""
"","","","","","visual-search-circle","63","539891","0.0-14.0-0.0-1.24","5fb754ca012e372845878671","619531dcf66c91622fa1b861","619596187bd028d33946da48","3565.7000000029802","","d","true","[[529,107],[292,0],[60,118],[9,374],[176,573],[436,566],[594,359]]","true","7","main_T2_Trial","d","img/Fire_Up_Target.gif","[""img/Fire_Down_Distractor.gif"",""img/Fire_Down_Distractor.gif"",""img/Fire_Down_Distractor.gif"",""img/Fire_Down_Distractor.gif"",""img/Fire_Down_Distractor.gif"",""img/Fire_Down_Distractor.gif"",""img/Fire_Down_Distractor.gif"",""img/Fire_Down_Distractor.gif"",""img/Fire_Down_Distractor.gif"",""img/Fire_Down_Distractor.gif"",""img/Fire_Down_Distractor.gif"",""img/Fire_Down_Distractor.gif""]","7","targetUp_distractorsDown"
"","","","","","html-keyboard-response","64","539909","0.0-14.0-0.0-0.25","5fb754ca012e372845878671","619531dcf66c91622fa1b861","619596187bd028d33946da48","null","","null","","","","","main_T1_ITI","","","","",""
"","","","","","visual-search-circle","65","545089","0.0-14.0-0.0-1.25","5fb754ca012e372845878671","619531dcf66c91622fa1b861","619596187bd028d33946da48","4161.5","","s","true","[[320,0],[21,187],[107,529],[458,554],[591,227]]","false","5","main_T2_Trial","s","img/Fire_Up_Target.gif","[""img/Fire_Down_Distractor.gif"",""img/Fire_Down_Distractor.gif"",""img/Fire_Down_Distractor.gif"",""img/Fire_Down_Distractor.gif"",""img/Fire_Down_Distractor.gif"",""img/Fire_Down_Distractor.gif"",""img/Fire_Down_Distractor.gif"",""img/Fire_Down_Distractor.gif"",""img/Fire_Down_Distractor.gif"",""img/Fire_Down_Distractor.gif"",""img/Fire_Down_Distractor.gif"",""img/Fire_Down_Distractor.gif""]","5","targetUp_distractorsDown"
"","","","","","html-keyboard-response","66","545091","0.0-14.0-0.0-0.26","5fb754ca012e372845878671","619531dcf66c91622fa1b861","619596187bd028d33946da48","null","","null","","","","","main_T1_ITI","","","","",""
"","","","","","visual-search-circle","67","550243","0.0-14.0-0.0-1.26","5fb754ca012e372845878671","619531dcf66c91622fa1b861","619596187bd028d33946da48","4141.600000008941","","d","true","[[445,562],[595,349],[523,99],[282,0],[55,126],[11,383],[185,577]]","true","7","main_T2_Trial","d","img/Fire_Down_Target.gif","[""img/Fire_Up_Distractor.gif"",""img/Fire_Up_Distractor.gif"",""img/Fire_Up_Distractor.gif"",""img/Fire_Up_Distractor.gif"",""img/Fire_Up_Distractor.gif"",""img/Fire_Up_Distractor.gif"",""img/Fire_Up_Distractor.gif"",""img/Fire_Up_Distractor.gif"",""img/Fire_Up_Distractor.gif"",""img/Fire_Up_Distractor.gif"",""img/Fire_Up_Distractor.gif"",""img/Fire_Up_Distractor.gif""]","7","targetDown_distractorsUp"
"","","","","","html-keyboard-response","68","550264","0.0-14.0-0.0-0.27","5fb754ca012e372845878671","619531dcf66c91622fa1b861","619596187bd028d33946da48","null","","null","","","","","main_T1_ITI","","","","",""
"","","","","","visual-search-circle","69","555034","0.0-14.0-0.0-1.27","5fb754ca012e372845878671","619531dcf66c91622fa1b861","619596187bd028d33946da48","3751.2999999970198","","d","true","[[336,597],[555,457],[582,198],[396,15],[137,47],[1,269],[89,514]]","true","7","main_T2_Trial","d","img/Fire_Down_Target.gif","[""img/Fire_Up_Distractor.gif"",""img/Fire_Up_Distractor.gif"",""img/Fire_Up_Distractor.gif"",""img/Fire_Up_Distractor.gif"",""img/Fire_Up_Distractor.gif"",""img/Fire_Up_Distractor.gif"",""img/Fire_Up_Distractor.gif"",""img/Fire_Up_Distractor.gif"",""img/Fire_Up_Distractor.gif"",""img/Fire_Up_Distractor.gif"",""img/Fire_Up_Distractor.gif"",""img/Fire_Up_Distractor.gif""]","7","targetDown_distractorsUp"
"","","","","","html-keyboard-response","70","555039","0.0-14.0-0.0-0.28","5fb754ca012e372845878671","619531dcf66c91622fa1b861","619596187bd028d33946da48","null","","null","","","","","main_T1_ITI","","","","",""
"","","","","","visual-search-circle","71","562211","0.0-14.0-0.0-1.28","5fb754ca012e372845878671","619531dcf66c91622fa1b861","619596187bd028d33946da48","6149.9000000059605","","d","true","[[300,0],[87,87],[0,299],[87,512],[299,600],[512,512],[600,300],[512,87]]","true","8","main_T2_Trial","d","img/Fire_Down_Target.gif","[""img/Fire_Up_Distractor.gif"",""img/Fire_Up_Distractor.gif"",""img/Fire_Up_Distractor.gif"",""img/Fire_Up_Distractor.gif"",""img/Fire_Up_Distractor.gif"",""img/Fire_Up_Distractor.gif"",""img/Fire_Up_Distractor.gif"",""img/Fire_Up_Distractor.gif"",""img/Fire_Up_Distractor.gif"",""img/Fire_Up_Distractor.gif"",""img/Fire_Up_Distractor.gif"",""img/Fire_Up_Distractor.gif""]","8","targetDown_distractorsUp"
"","","","","","html-keyboard-response","72","562214","0.0-14.0-0.0-0.29","5fb754ca012e372845878671","619531dcf66c91622fa1b861","619596187bd028d33946da48","null","","null","","","","","main_T1_ITI","","","","",""
"","","","","","visual-search-circle","73","569402","0.0-14.0-0.0-1.29","5fb754ca012e372845878671","619531dcf66c91622fa1b861","619596187bd028d33946da48","6167.9000000059605","","d","true","[[372,591],[591,227],[227,8],[8,372]]","true","4","main_T2_Trial","d","img/Fire_Down_Target.gif","[""img/Fire_Up_Distractor.gif"",""img/Fire_Up_Distractor.gif"",""img/Fire_Up_Distractor.gif"",""img/Fire_Up_Distractor.gif"",""img/Fire_Up_Distractor.gif"",""img/Fire_Up_Distractor.gif"",""img/Fire_Up_Distractor.gif"",""img/Fire_Up_Distractor.gif"",""img/Fire_Up_Distractor.gif"",""img/Fire_Up_Distractor.gif"",""img/Fire_Up_Distractor.gif"",""img/Fire_Up_Distractor.gif""]","4","targetDown_distractorsUp"
"","","","","","html-keyboard-response","74","569404","0.0-14.0-0.0-0.30","5fb754ca012e372845878671","619531dcf66c91622fa1b861","619596187bd028d33946da48","null","","null","","","","","main_T1_ITI","","","","",""
"","","","","","visual-search-circle","75","573618","0.0-14.0-0.0-1.30","5fb754ca012e372845878671","619531dcf66c91622fa1b861","619596187bd028d33946da48","3192","","s","true","[[559,450],[579,190],[388,13],[131,52],[0,277],[95,519],[344,596]]","false","7","main_T2_Trial","s","img/Fire_Up_Target.gif","[""img/Fire_Down_Distractor.gif"",""img/Fire_Down_Distractor.gif"",""img/Fire_Down_Distractor.gif"",""img/Fire_Down_Distractor.gif"",""img/Fire_Down_Distractor.gif"",""img/Fire_Down_Distractor.gif"",""img/Fire_Down_Distractor.gif"",""img/Fire_Down_Distractor.gif"",""img/Fire_Down_Distractor.gif"",""img/Fire_Down_Distractor.gif"",""img/Fire_Down_Distractor.gif"",""img/Fire_Down_Distractor.gif""]","7","targetUp_distractorsDown"
"","","","","","html-keyboard-response","76","573620","0.0-14.0-0.0-0.31","5fb754ca012e372845878671","619531dcf66c91622fa1b861","619596187bd028d33946da48","null","","null","","","","","main_T1_ITI","","","","",""
"","","","","","visual-search-circle","77","576449","0.0-14.0-0.0-1.31","5fb754ca012e372845878671","619531dcf66c91622fa1b861","619596187bd028d33946da48","1815.7999999970198","","d","true","[[367,7],[7,232],[232,592],[592,367]]","true","4","main_T2_Trial","d","img/Fire_Up_Target.gif","[""img/Fire_Down_Distractor.gif"",""img/Fire_Down_Distractor.gif"",""img/Fire_Down_Distractor.gif"",""img/Fire_Down_Distractor.gif"",""img/Fire_Down_Distractor.gif"",""img/Fire_Down_Distractor.gif"",""img/Fire_Down_Distractor.gif"",""img/Fire_Down_Distractor.gif"",""img/Fire_Down_Distractor.gif"",""img/Fire_Down_Distractor.gif"",""img/Fire_Down_Distractor.gif"",""img/Fire_Down_Distractor.gif""]","4","targetUp_distractorsDown"
"","","","","","html-keyboard-response","78","576453","0.0-14.0-0.0-0.32","5fb754ca012e372845878671","619531dcf66c91622fa1b861","619596187bd028d33946da48","null","","null","","","","","main_T1_ITI","","","","",""
"","","","","","visual-search-circle","79","579313","0.0-14.0-0.0-1.32","5fb754ca012e372845878671","619531dcf66c91622fa1b861","619596187bd028d33946da48","1841.7000000029802","","s","true","[[554,458],[458,45],[45,141],[141,554]]","false","4","main_T2_Trial","s","img/Fire_Up_Target.gif","[""img/Fire_Down_Distractor.gif"",""img/Fire_Down_Distractor.gif"",""img/Fire_Down_Distractor.gif"",""img/Fire_Down_Distractor.gif"",""img/Fire_Down_Distractor.gif"",""img/Fire_Down_Distractor.gif"",""img/Fire_Down_Distractor.gif"",""img/Fire_Down_Distractor.gif"",""img/Fire_Down_Distractor.gif"",""img/Fire_Down_Distractor.gif"",""img/Fire_Down_Distractor.gif"",""img/Fire_Down_Distractor.gif""]","4","targetUp_distractorsDown"
"","","","","","html-keyboard-response","80","579330","0.0-14.0-0.0-0.33","5fb754ca012e372845878671","619531dcf66c91622fa1b861","619596187bd028d33946da48","null","","null","","","","","main_T1_ITI","","","","",""
"","","","","","visual-search-circle","81","584419","0.0-14.0-0.0-1.33","5fb754ca012e372845878671","619531dcf66c91622fa1b861","619596187bd028d33946da48","4072.4000000059605","","d","true","[[253,3],[19,192],[66,488],[346,596],[580,407],[533,111]]","true","6","main_T2_Trial","d","img/Fire_Up_Target.gif","[""img/Fire_Down_Distractor.gif"",""img/Fire_Down_Distractor.gif"",""img/Fire_Down_Distractor.gif"",""img/Fire_Down_Distractor.gif"",""img/Fire_Down_Distractor.gif"",""img/Fire_Down_Distractor.gif"",""img/Fire_Down_Distractor.gif"",""img/Fire_Down_Distractor.gif"",""img/Fire_Down_Distractor.gif"",""img/Fire_Down_Distractor.gif"",""img/Fire_Down_Distractor.gif"",""img/Fire_Down_Distractor.gif""]","6","targetUp_distractorsDown"
"","","","","","html-keyboard-response","82","584423","0.0-14.0-0.0-0.34","5fb754ca012e372845878671","619531dcf66c91622fa1b861","619596187bd028d33946da48","null","","null","","","","","main_T1_ITI","","","","",""
"","","","","","visual-search-circle","83","589753","0.0-14.0-0.0-1.34","5fb754ca012e372845878671","619531dcf66c91622fa1b861","619596187bd028d33946da48","4313.9000000059605","","d","true","[[320,0],[0,279],[279,599],[599,320]]","true","4","main_T2_Trial","d","img/Fire_Down_Target.gif","[""img/Fire_Up_Distractor.gif"",""img/Fire_Up_Distractor.gif"",""img/Fire_Up_Distractor.gif"",""img/Fire_Up_Distractor.gif"",""img/Fire_Up_Distractor.gif"",""img/Fire_Up_Distractor.gif"",""img/Fire_Up_Distractor.gif"",""img/Fire_Up_Distractor.gif"",""img/Fire_Up_Distractor.gif"",""img/Fire_Up_Distractor.gif"",""img/Fire_Up_Distractor.gif"",""img/Fire_Up_Distractor.gif""]","4","targetDown_distractorsUp"
"","","","","","html-keyboard-response","84","589755","0.0-14.0-0.0-0.35","5fb754ca012e372845878671","619531dcf66c91622fa1b861","619596187bd028d33946da48","null","","null","","","","","main_T1_ITI","","","","",""
"","","","","","visual-search-circle","85","593649","0.0-14.0-0.0-1.35","5fb754ca012e372845878671","619531dcf66c91622fa1b861","619596187bd028d33946da48","2871.5999999940395","","d","true","[[154,37],[4,250],[76,500],[317,599],[544,473],[588,216],[414,22]]","true","7","main_T2_Trial","d","img/Fire_Up_Target.gif","[""img/Fire_Down_Distractor.gif"",""img/Fire_Down_Distractor.gif"",""img/Fire_Down_Distractor.gif"",""img/Fire_Down_Distractor.gif"",""img/Fire_Down_Distractor.gif"",""img/Fire_Down_Distractor.gif"",""img/Fire_Down_Distractor.gif"",""img/Fire_Down_Distractor.gif"",""img/Fire_Down_Distractor.gif"",""img/Fire_Down_Distractor.gif"",""img/Fire_Down_Distractor.gif"",""img/Fire_Down_Distractor.gif""]","7","targetUp_distractorsDown"
"","","","","","html-keyboard-response","86","593651","0.0-14.0-0.0-0.36","5fb754ca012e372845878671","619531dcf66c91622fa1b861","619596187bd028d33946da48","null","","null","","","","","main_T1_ITI","","","","",""
"","","","","","visual-search-circle","87","598443","0.0-14.0-0.0-1.36","5fb754ca012e372845878671","619531dcf66c91622fa1b861","619596187bd028d33946da48","3775.7000000029802","","s","true","[[583,397],[397,16],[16,202],[202,583]]","false","4","main_T2_Trial","s","img/Fire_Down_Target.gif","[""img/Fire_Up_Distractor.gif"",""img/Fire_Up_Distractor.gif"",""img/Fire_Up_Distractor.gif"",""img/Fire_Up_Distractor.gif"",""img/Fire_Up_Distractor.gif"",""img/Fire_Up_Distractor.gif"",""img/Fire_Up_Distractor.gif"",""img/Fire_Up_Distractor.gif"",""img/Fire_Up_Distractor.gif"",""img/Fire_Up_Distractor.gif"",""img/Fire_Up_Distractor.gif"",""img/Fire_Up_Distractor.gif""]","4","targetDown_distractorsUp"
"","","","","","html-keyboard-response","88","598444","0.0-14.0-0.0-0.37","5fb754ca012e372845878671","619531dcf66c91622fa1b861","619596187bd028d33946da48","null","","null","","","","","main_T1_ITI","","","","",""
"","","","","","visual-search-circle","89","602649","0.0-14.0-0.0-1.37","5fb754ca012e372845878671","619531dcf66c91622fa1b861","619596187bd028d33946da48","3187.5","","d","true","[[392,585],[593,362],[500,77],[207,14],[6,237],[99,522]]","true","6","main_T2_Trial","d","img/Fire_Down_Target.gif","[""img/Fire_Up_Distractor.gif"",""img/Fire_Up_Distractor.gif"",""img/Fire_Up_Distractor.gif"",""img/Fire_Up_Distractor.gif"",""img/Fire_Up_Distractor.gif"",""img/Fire_Up_Distractor.gif"",""img/Fire_Up_Distractor.gif"",""img/Fire_Up_Distractor.gif"",""img/Fire_Up_Distractor.gif"",""img/Fire_Up_Distractor.gif"",""img/Fire_Up_Distractor.gif"",""img/Fire_Up_Distractor.gif""]","6","targetDown_distractorsUp"
"","","","","","html-keyboard-response","90","602651","0.0-14.0-0.0-0.38","5fb754ca012e372845878671","619531dcf66c91622fa1b861","619596187bd028d33946da48","null","","null","","","","","main_T1_ITI","","","","",""
"","","","","","visual-search-circle","91","607457","0.0-14.0-0.0-1.38","5fb754ca012e372845878671","619531dcf66c91622fa1b861","619596187bd028d33946da48","3782","","d","true","[[40,450],[255,596],[504,519],[599,277],[468,52],[211,13],[20,190]]","true","7","main_T2_Trial","d","img/Fire_Down_Target.gif","[""img/Fire_Up_Distractor.gif"",""img/Fire_Up_Distractor.gif"",""img/Fire_Up_Distractor.gif"",""img/Fire_Up_Distractor.gif"",""img/Fire_Up_Distractor.gif"",""img/Fire_Up_Distractor.gif"",""img/Fire_Up_Distractor.gif"",""img/Fire_Up_Distractor.gif"",""img/Fire_Up_Distractor.gif"",""img/Fire_Up_Distractor.gif"",""img/Fire_Up_Distractor.gif"",""img/Fire_Up_Distractor.gif""]","7","targetDown_distractorsUp"
"","","","","","html-keyboard-response","92","613978","0.0-14.0-0.0-0.39","5fb754ca012e372845878671","619531dcf66c91622fa1b861","619596187bd028d33946da48","6520.399999991059","Wow! You've completed 40 out of 160 trials! </p> <p>  </p><p> Take a quick break, then press any key when you're ready to continue.","enter","","","","","main_T1_ITI","","","","",""
"","","","","","visual-search-circle","93","617481","0.0-14.0-0.0-1.39","5fb754ca012e372845878671","619531dcf66c91622fa1b861","619596187bd028d33946da48","2481.4000000059605","","s","true","[[2,341],[119,539],[341,597],[539,480],[597,258],[480,60],[258,2],[60,119]]","false","8","main_T2_Trial","s","img/Fire_Up_Target.gif","[""img/Fire_Down_Distractor.gif"",""img/Fire_Down_Distractor.gif"",""img/Fire_Down_Distractor.gif"",""img/Fire_Down_Distractor.gif"",""img/Fire_Down_Distractor.gif"",""img/Fire_Down_Distractor.gif"",""img/Fire_Down_Distractor.gif"",""img/Fire_Down_Distractor.gif"",""img/Fire_Down_Distractor.gif"",""img/Fire_Down_Distractor.gif"",""img/Fire_Down_Distractor.gif"",""img/Fire_Down_Distractor.gif""]","8","targetUp_distractorsDown"
"","","","","","html-keyboard-response","94","617496","0.0-14.0-0.0-0.40","5fb754ca012e372845878671","619531dcf66c91622fa1b861","619596187bd028d33946da48","null","","null","","","","","main_T1_ITI","","","","",""
"","","","","","visual-search-circle","95","621473","0.0-14.0-0.0-1.40","5fb754ca012e372845878671","619531dcf66c91622fa1b861","619596187bd028d33946da48","2964.2000000029802","","s","true","[[589,377],[377,10],[10,222],[222,589]]","false","4","main_T2_Trial","s","img/Fire_Up_Target.gif","[""img/Fire_Down_Distractor.gif"",""img/Fire_Down_Distractor.gif"",""img/Fire_Down_Distractor.gif"",""img/Fire_Down_Distractor.gif"",""img/Fire_Down_Distractor.gif"",""img/Fire_Down_Distractor.gif"",""img/Fire_Down_Distractor.gif"",""img/Fire_Down_Distractor.gif"",""img/Fire_Down_Distractor.gif"",""img/Fire_Down_Distractor.gif"",""img/Fire_Down_Distractor.gif"",""img/Fire_Down_Distractor.gif""]","4","targetUp_distractorsDown"
"","","","","","html-keyboard-response","96","621475","0.0-14.0-0.0-0.41","5fb754ca012e372845878671","619531dcf66c91622fa1b861","619596187bd028d33946da48","null","","null","","","","","main_T1_ITI","","","","",""
"","","","","","visual-search-circle","97","626099","0.0-14.0-0.0-1.41","5fb754ca012e372845878671","619531dcf66c91622fa1b861","619596187bd028d33946da48","3616.5","","d","false","[[207,585],[585,392],[392,14],[14,207]]","false","4","main_T2_Trial","s","img/Fire_Up_Target.gif","[""img/Fire_Down_Distractor.gif"",""img/Fire_Down_Distractor.gif"",""img/Fire_Down_Distractor.gif"",""img/Fire_Down_Distractor.gif"",""img/Fire_Down_Distractor.gif"",""img/Fire_Down_Distractor.gif"",""img/Fire_Down_Distractor.gif"",""img/Fire_Down_Distractor.gif"",""img/Fire_Down_Distractor.gif"",""img/Fire_Down_Distractor.gif"",""img/Fire_Down_Distractor.gif"",""img/Fire_Down_Distractor.gif""]","4","targetUp_distractorsDown"
"","","","","","html-keyboard-response","98","626101","0.0-14.0-0.0-0.42","5fb754ca012e372845878671","619531dcf66c91622fa1b861","619596187bd028d33946da48","null","","null","","","","","main_T1_ITI","","","","",""
"","","","","","visual-search-circle","99","630689","0.0-14.0-0.0-1.42","5fb754ca012e372845878671","619531dcf66c91622fa1b861","619596187bd028d33946da48","3573.5","","d","true","[[242,594],[526,496],[583,202],[357,5],[73,103],[16,397]]","true","6","main_T2_Trial","d","img/Fire_Down_Target.gif","[""img/Fire_Up_Distractor.gif"",""img/Fire_Up_Distractor.gif"",""img/Fire_Up_Distractor.gif"",""img/Fire_Up_Distractor.gif"",""img/Fire_Up_Distractor.gif"",""img/Fire_Up_Distractor.gif"",""img/Fire_Up_Distractor.gif"",""img/Fire_Up_Distractor.gif"",""img/Fire_Up_Distractor.gif"",""img/Fire_Up_Distractor.gif"",""img/Fire_Up_Distractor.gif"",""img/Fire_Up_Distractor.gif""]","6","targetDown_distractorsUp"
"","","","","","html-keyboard-response","100","630691","0.0-14.0-0.0-0.43","5fb754ca012e372845878671","619531dcf66c91622fa1b861","619596187bd028d33946da48","null","","null","","","","","main_T1_ITI","","","","",""
"","","","","","visual-search-circle","101","634689","0.0-14.0-0.0-1.43","5fb754ca012e372845878671","619531dcf66c91622fa1b861","619596187bd028d33946da48","2975.800000011921","","d","true","[[583,397],[526,103],[242,5],[16,202],[73,496],[357,594]]","true","6","main_T2_Trial","d","img/Fire_Up_Target.gif","[""img/Fire_Down_Distractor.gif"",""img/Fire_Down_Distractor.gif"",""img/Fire_Down_Distractor.gif"",""img/Fire_Down_Distractor.gif"",""img/Fire_Down_Distractor.gif"",""img/Fire_Down_Distractor.gif"",""img/Fire_Down_Distractor.gif"",""img/Fire_Down_Distractor.gif"",""img/Fire_Down_Distractor.gif"",""img/Fire_Down_Distractor.gif"",""img/Fire_Down_Distractor.gif"",""img/Fire_Down_Distractor.gif""]","6","targetUp_distractorsDown"
"","","","","","html-keyboard-response","102","634691","0.0-14.0-0.0-0.44","5fb754ca012e372845878671","619531dcf66c91622fa1b861","619596187bd028d33946da48","null","","null","","","","","main_T1_ITI","","","","",""
"","","","","","visual-search-circle","103","642947","0.0-14.0-0.0-1.44","5fb754ca012e372845878671","619531dcf66c91622fa1b861","619596187bd028d33946da48","7243.20000000298","","d","true","[[596,346],[488,66],[192,19],[3,253],[111,533],[407,580]]","true","6","main_T2_Trial","d","img/Fire_Down_Target.gif","[""img/Fire_Up_Distractor.gif"",""img/Fire_Up_Distractor.gif"",""img/Fire_Up_Distractor.gif"",""img/Fire_Up_Distractor.gif"",""img/Fire_Up_Distractor.gif"",""img/Fire_Up_Distractor.gif"",""img/Fire_Up_Distractor.gif"",""img/Fire_Up_Distractor.gif"",""img/Fire_Up_Distractor.gif"",""img/Fire_Up_Distractor.gif"",""img/Fire_Up_Distractor.gif"",""img/Fire_Up_Distractor.gif""]","6","targetDown_distractorsUp"
"","","","","","html-keyboard-response","104","642951","0.0-14.0-0.0-0.45","5fb754ca012e372845878671","619531dcf66c91622fa1b861","619596187bd028d33946da48","null","","null","","","","","main_T1_ITI","","","","",""
"","","","","","visual-search-circle","105","647985","0.0-14.0-0.0-1.45","5fb754ca012e372845878671","619531dcf66c91622fa1b861","619596187bd028d33946da48","4024.7000000029802","","d","true","[[597,258],[258,2],[2,341],[341,597]]","true","4","main_T2_Trial","d","img/Fire_Up_Target.gif","[""img/Fire_Down_Distractor.gif"",""img/Fire_Down_Distractor.gif"",""img/Fire_Down_Distractor.gif"",""img/Fire_Down_Distractor.gif"",""img/Fire_Down_Distractor.gif"",""img/Fire_Down_Distractor.gif"",""img/Fire_Down_Distractor.gif"",""img/Fire_Down_Distractor.gif"",""img/Fire_Down_Distractor.gif"",""img/Fire_Down_Distractor.gif"",""img/Fire_Down_Distractor.gif"",""img/Fire_Down_Distractor.gif""]","4","targetUp_distractorsDown"
"","","","","","html-keyboard-response","106","647988","0.0-14.0-0.0-0.46","5fb754ca012e372845878671","619531dcf66c91622fa1b861","619596187bd028d33946da48","null","","null","","","","","main_T1_ITI","","","","",""
"","","","","","visual-search-circle","107","650649","0.0-14.0-0.0-1.46","5fb754ca012e372845878671","619531dcf66c91622fa1b861","619596187bd028d33946da48","1633.1000000089407","","s","true","[[578,187],[417,23],[187,21],[23,182],[21,412],[182,576],[412,578],[576,417]]","false","8","main_T2_Trial","s","img/Fire_Up_Target.gif","[""img/Fire_Down_Distractor.gif"",""img/Fire_Down_Distractor.gif"",""img/Fire_Down_Distractor.gif"",""img/Fire_Down_Distractor.gif"",""img/Fire_Down_Distractor.gif"",""img/Fire_Down_Distractor.gif"",""img/Fire_Down_Distractor.gif"",""img/Fire_Down_Distractor.gif"",""img/Fire_Down_Distractor.gif"",""img/Fire_Down_Distractor.gif"",""img/Fire_Down_Distractor.gif"",""img/Fire_Down_Distractor.gif""]","8","targetUp_distractorsDown"
"","","","","","html-keyboard-response","108","650651","0.0-14.0-0.0-0.47","5fb754ca012e372845878671","619531dcf66c91622fa1b861","619596187bd028d33946da48","null","","null","","","","","main_T1_ITI","","","","",""
"","","","","","visual-search-circle","109","653291","0.0-14.0-0.0-1.47","5fb754ca012e372845878671","619531dcf66c91622fa1b861","619596187bd028d33946da48","1621.5","","d","true","[[484,536],[536,115],[115,63],[63,484]]","true","4","main_T2_Trial","d","img/Fire_Down_Target.gif","[""img/Fire_Up_Distractor.gif"",""img/Fire_Up_Distractor.gif"",""img/Fire_Up_Distractor.gif"",""img/Fire_Up_Distractor.gif"",""img/Fire_Up_Distractor.gif"",""img/Fire_Up_Distractor.gif"",""img/Fire_Up_Distractor.gif"",""img/Fire_Up_Distractor.gif"",""img/Fire_Up_Distractor.gif"",""img/Fire_Up_Distractor.gif"",""img/Fire_Up_Distractor.gif"",""img/Fire_Up_Distractor.gif""]","4","targetDown_distractorsUp"
"","","","","","html-keyboard-response","110","653293","0.0-14.0-0.0-0.48","5fb754ca012e372845878671","619531dcf66c91622fa1b861","619596187bd028d33946da48","null","","null","","","","","main_T1_ITI","","","","",""
"","","","","","visual-search-circle","111","657296","0.0-14.0-0.0-1.48","5fb754ca012e372845878671","619531dcf66c91622fa1b861","619596187bd028d33946da48","2980.2000000029802","","s","true","[[574,422],[566,161],[357,5],[106,71],[0,308],[120,540],[375,590]]","false","7","main_T2_Trial","s","img/Fire_Up_Target.gif","[""img/Fire_Down_Distractor.gif"",""img/Fire_Down_Distractor.gif"",""img/Fire_Down_Distractor.gif"",""img/Fire_Down_Distractor.gif"",""img/Fire_Down_Distractor.gif"",""img/Fire_Down_Distractor.gif"",""img/Fire_Down_Distractor.gif"",""img/Fire_Down_Distractor.gif"",""img/Fire_Down_Distractor.gif"",""img/Fire_Down_Distractor.gif"",""img/Fire_Down_Distractor.gif"",""img/Fire_Down_Distractor.gif""]","7","targetUp_distractorsDown"
"","","","","","html-keyboard-response","112","657299","0.0-14.0-0.0-0.49","5fb754ca012e372845878671","619531dcf66c91622fa1b861","619596187bd028d33946da48","null","","null","","","","","main_T1_ITI","","","","",""
"","","","","","visual-search-circle","113","659569","0.0-14.0-0.0-1.49","5fb754ca012e372845878671","619531dcf66c91622fa1b861","619596187bd028d33946da48","1262.6000000089407","","d","true","[[315,0],[19,192],[111,533],[463,551],[589,222]]","true","5","main_T2_Trial","d","img/Fire_Down_Target.gif","[""img/Fire_Up_Distractor.gif"",""img/Fire_Up_Distractor.gif"",""img/Fire_Up_Distractor.gif"",""img/Fire_Up_Distractor.gif"",""img/Fire_Up_Distractor.gif"",""img/Fire_Up_Distractor.gif"",""img/Fire_Up_Distractor.gif"",""img/Fire_Up_Distractor.gif"",""img/Fire_Up_Distractor.gif"",""img/Fire_Up_Distractor.gif"",""img/Fire_Up_Distractor.gif"",""img/Fire_Up_Distractor.gif""]","5","targetDown_distractorsUp"
"","","","","","html-keyboard-response","114","659573","0.0-14.0-0.0-0.50","5fb754ca012e372845878671","619531dcf66c91622fa1b861","619596187bd028d33946da48","null","","null","","","","","main_T1_ITI","","","","",""
"","","","","","visual-search-circle","115","662137","0.0-14.0-0.0-1.50","5fb754ca012e372845878671","619531dcf66c91622fa1b861","619596187bd028d33946da48","1547.699999988079","","d","true","[[484,536],[597,336],[536,115],[336,2],[115,63],[2,263],[63,484],[263,597]]","true","8","main_T2_Trial","d","img/Fire_Down_Target.gif","[""img/Fire_Up_Distractor.gif"",""img/Fire_Up_Distractor.gif"",""img/Fire_Up_Distractor.gif"",""img/Fire_Up_Distractor.gif"",""img/Fire_Up_Distractor.gif"",""img/Fire_Up_Distractor.gif"",""img/Fire_Up_Distractor.gif"",""img/Fire_Up_Distractor.gif"",""img/Fire_Up_Distractor.gif"",""img/Fire_Up_Distractor.gif"",""img/Fire_Up_Distractor.gif"",""img/Fire_Up_Distractor.gif""]","8","targetDown_distractorsUp"
"","","","","","html-keyboard-response","116","662139","0.0-14.0-0.0-0.51","5fb754ca012e372845878671","619531dcf66c91622fa1b861","619596187bd028d33946da48","null","","null","","","","","main_T1_ITI","","","","",""
"","","","","","visual-search-circle","117","664643","0.0-14.0-0.0-1.51","5fb754ca012e372845878671","619531dcf66c91622fa1b861","619596187bd028d33946da48","1490","","s","true","[[551,136],[329,1],[84,91],[2,338],[144,556],[403,581],[584,394]]","false","7","main_T2_Trial","s","img/Fire_Down_Target.gif","[""img/Fire_Up_Distractor.gif"",""img/Fire_Up_Distractor.gif"",""img/Fire_Up_Distractor.gif"",""img/Fire_Up_Distractor.gif"",""img/Fire_Up_Distractor.gif"",""img/Fire_Up_Distractor.gif"",""img/Fire_Up_Distractor.gif"",""img/Fire_Up_Distractor.gif"",""img/Fire_Up_Distractor.gif"",""img/Fire_Up_Distractor.gif"",""img/Fire_Up_Distractor.gif"",""img/Fire_Up_Distractor.gif""]","7","targetDown_distractorsUp"
"","","","","","html-keyboard-response","118","664645","0.0-14.0-0.0-0.52","5fb754ca012e372845878671","619531dcf66c91622fa1b861","619596187bd028d33946da48","null","","null","","","","","main_T1_ITI","","","","",""
"","","","","","visual-search-circle","119","667416","0.0-14.0-0.0-1.52","5fb754ca012e372845878671","619531dcf66c91622fa1b861","619596187bd028d33946da48","1754","","s","true","[[0,299],[112,534],[366,592],[570,430],[570,169],[366,7],[112,65]]","false","7","main_T2_Trial","s","img/Fire_Up_Target.gif","[""img/Fire_Down_Distractor.gif"",""img/Fire_Down_Distractor.gif"",""img/Fire_Down_Distractor.gif"",""img/Fire_Down_Distractor.gif"",""img/Fire_Down_Distractor.gif"",""img/Fire_Down_Distractor.gif"",""img/Fire_Down_Distractor.gif"",""img/Fire_Down_Distractor.gif"",""img/Fire_Down_Distractor.gif"",""img/Fire_Down_Distractor.gif"",""img/Fire_Down_Distractor.gif"",""img/Fire_Down_Distractor.gif""]","7","targetUp_distractorsDown"
"","","","","","html-keyboard-response","120","667420","0.0-14.0-0.0-0.53","5fb754ca012e372845878671","619531dcf66c91622fa1b861","619596187bd028d33946da48","null","","null","","","","","main_T1_ITI","","","","",""
"","","","","","visual-search-circle","121","670177","0.0-14.0-0.0-1.53","5fb754ca012e372845878671","619531dcf66c91622fa1b861","619596187bd028d33946da48","1738.2000000029802","","s","true","[[60,119],[119,539],[539,480],[480,60]]","false","4","main_T2_Trial","s","img/Fire_Up_Target.gif","[""img/Fire_Down_Distractor.gif"",""img/Fire_Down_Distractor.gif"",""img/Fire_Down_Distractor.gif"",""img/Fire_Down_Distractor.gif"",""img/Fire_Down_Distractor.gif"",""img/Fire_Down_Distractor.gif"",""img/Fire_Down_Distractor.gif"",""img/Fire_Down_Distractor.gif"",""img/Fire_Down_Distractor.gif"",""img/Fire_Down_Distractor.gif"",""img/Fire_Down_Distractor.gif"",""img/Fire_Down_Distractor.gif""]","4","targetUp_distractorsDown"
"","","","","","html-keyboard-response","122","670188","0.0-14.0-0.0-0.54","5fb754ca012e372845878671","619531dcf66c91622fa1b861","619596187bd028d33946da48","null","","null","","","","","main_T1_ITI","","","","",""
"","","","","","visual-search-circle","123","674723","0.0-14.0-0.0-1.54","5fb754ca012e372845878671","619531dcf66c91622fa1b861","619596187bd028d33946da48","3515.2999999970198","","s","true","[[402,18],[63,115],[51,467],[382,588],[599,310]]","false","5","main_T2_Trial","s","img/Fire_Up_Target.gif","[""img/Fire_Down_Distractor.gif"",""img/Fire_Down_Distractor.gif"",""img/Fire_Down_Distractor.gif"",""img/Fire_Down_Distractor.gif"",""img/Fire_Down_Distractor.gif"",""img/Fire_Down_Distractor.gif"",""img/Fire_Down_Distractor.gif"",""img/Fire_Down_Distractor.gif"",""img/Fire_Down_Distractor.gif"",""img/Fire_Down_Distractor.gif"",""img/Fire_Down_Distractor.gif"",""img/Fire_Down_Distractor.gif""]","5","targetUp_distractorsDown"
"","","","","","html-keyboard-response","124","674732","0.0-14.0-0.0-0.55","5fb754ca012e372845878671","619531dcf66c91622fa1b861","619596187bd028d33946da48","null","","null","","","","","main_T1_ITI","","","","",""
"","","","","","visual-search-circle","125","677401","0.0-14.0-0.0-1.55","5fb754ca012e372845878671","619531dcf66c91622fa1b861","619596187bd028d33946da48","1648.8999999910593","","d","true","[[1,268],[89,513],[335,597],[555,457],[582,198],[396,16],[138,47]]","true","7","main_T2_Trial","d","img/Fire_Down_Target.gif","[""img/Fire_Up_Distractor.gif"",""img/Fire_Up_Distractor.gif"",""img/Fire_Up_Distractor.gif"",""img/Fire_Up_Distractor.gif"",""img/Fire_Up_Distractor.gif"",""img/Fire_Up_Distractor.gif"",""img/Fire_Up_Distractor.gif"",""img/Fire_Up_Distractor.gif"",""img/Fire_Up_Distractor.gif"",""img/Fire_Up_Distractor.gif"",""img/Fire_Up_Distractor.gif"",""img/Fire_Up_Distractor.gif""]","7","targetDown_distractorsUp"
"","","","","","html-keyboard-response","126","677403","0.0-14.0-0.0-0.56","5fb754ca012e372845878671","619531dcf66c91622fa1b861","619596187bd028d33946da48","null","","null","","","","","main_T1_ITI","","","","",""
"","","","","","visual-search-circle","127","680313","0.0-14.0-0.0-1.56","5fb754ca012e372845878671","619531dcf66c91622fa1b861","619596187bd028d33946da48","1900.300000011921","","d","true","[[119,60],[0,291],[106,529],[358,594],[566,437],[573,177],[374,9]]","true","7","main_T2_Trial","d","img/Fire_Up_Target.gif","[""img/Fire_Down_Distractor.gif"",""img/Fire_Down_Distractor.gif"",""img/Fire_Down_Distractor.gif"",""img/Fire_Down_Distractor.gif"",""img/Fire_Down_Distractor.gif"",""img/Fire_Down_Distractor.gif"",""img/Fire_Down_Distractor.gif"",""img/Fire_Down_Distractor.gif"",""img/Fire_Down_Distractor.gif"",""img/Fire_Down_Distractor.gif"",""img/Fire_Down_Distractor.gif"",""img/Fire_Down_Distractor.gif""]","7","targetUp_distractorsDown"
"","","","","","html-keyboard-response","128","680319","0.0-14.0-0.0-0.57","5fb754ca012e372845878671","619531dcf66c91622fa1b861","619596187bd028d33946da48","null","","null","","","","","main_T1_ITI","","","","",""
"","","","","","visual-search-circle","129","686428","0.0-14.0-0.0-1.57","5fb754ca012e372845878671","619531dcf66c91622fa1b861","619596187bd028d33946da48","5100.300000011921","","d","true","[[207,14],[0,299],[207,585],[542,476],[542,123]]","true","5","main_T2_Trial","d","img/Fire_Up_Target.gif","[""img/Fire_Down_Distractor.gif"",""img/Fire_Down_Distractor.gif"",""img/Fire_Down_Distractor.gif"",""img/Fire_Down_Distractor.gif"",""img/Fire_Down_Distractor.gif"",""img/Fire_Down_Distractor.gif"",""img/Fire_Down_Distractor.gif"",""img/Fire_Down_Distractor.gif"",""img/Fire_Down_Distractor.gif"",""img/Fire_Down_Distractor.gif"",""img/Fire_Down_Distractor.gif"",""img/Fire_Down_Distractor.gif""]","5","targetUp_distractorsDown"
"","","","","","html-keyboard-response","130","686452","0.0-14.0-0.0-0.58","5fb754ca012e372845878671","619531dcf66c91622fa1b861","619596187bd028d33946da48","null","","null","","","","","main_T1_ITI","","","","",""
"","","","","","visual-search-circle","131","688825","0.0-14.0-0.0-1.58","5fb754ca012e372845878671","619531dcf66c91622fa1b861","619596187bd028d33946da48","1355.2999999970198","","s","true","[[54,127],[4,352],[127,545],[352,595],[545,472],[595,247],[472,54],[247,4]]","false","8","main_T2_Trial","s","img/Fire_Down_Target.gif","[""img/Fire_Up_Distractor.gif"",""img/Fire_Up_Distractor.gif"",""img/Fire_Up_Distractor.gif"",""img/Fire_Up_Distractor.gif"",""img/Fire_Up_Distractor.gif"",""img/Fire_Up_Distractor.gif"",""img/Fire_Up_Distractor.gif"",""img/Fire_Up_Distractor.gif"",""img/Fire_Up_Distractor.gif"",""img/Fire_Up_Distractor.gif"",""img/Fire_Up_Distractor.gif"",""img/Fire_Up_Distractor.gif""]","8","targetDown_distractorsUp"
"","","","","","html-keyboard-response","132","694449","0.0-14.0-0.0-0.59","5fb754ca012e372845878671","619531dcf66c91622fa1b861","619596187bd028d33946da48","5622.5999999940395","Wow! You've completed 60 out of 160 trials! </p> <p>  </p><p> Take a quick break, then press any key when you're ready to continue.","enter","","","","","main_T1_ITI","","","","",""
"","","","","","visual-search-circle","133","697331","0.0-14.0-0.0-1.59","5fb754ca012e372845878671","619531dcf66c91622fa1b861","619596187bd028d33946da48","1869.6000000089407","","s","true","[[426,571],[571,173],[173,28],[28,426]]","false","4","main_T2_Trial","s","img/Fire_Down_Target.gif","[""img/Fire_Up_Distractor.gif"",""img/Fire_Up_Distractor.gif"",""img/Fire_Up_Distractor.gif"",""img/Fire_Up_Distractor.gif"",""img/Fire_Up_Distractor.gif"",""img/Fire_Up_Distractor.gif"",""img/Fire_Up_Distractor.gif"",""img/Fire_Up_Distractor.gif"",""img/Fire_Up_Distractor.gif"",""img/Fire_Up_Distractor.gif"",""img/Fire_Up_Distractor.gif"",""img/Fire_Up_Distractor.gif""]","4","targetDown_distractorsUp"
"","","","","","html-keyboard-response","134","697336","0.0-14.0-0.0-0.60","5fb754ca012e372845878671","619531dcf66c91622fa1b861","619596187bd028d33946da48","null","","null","","","","","main_T1_ITI","","","","",""
"","","","","","visual-search-circle","135","700897","0.0-14.0-0.0-1.60","5fb754ca012e372845878671","619531dcf66c91622fa1b861","619596187bd028d33946da48","2545.5","","d","true","[[595,247],[443,36],[183,23],[11,218],[56,475],[285,599],[524,498]]","true","7","main_T2_Trial","d","img/Fire_Up_Target.gif","[""img/Fire_Down_Distractor.gif"",""img/Fire_Down_Distractor.gif"",""img/Fire_Down_Distractor.gif"",""img/Fire_Down_Distractor.gif"",""img/Fire_Down_Distractor.gif"",""img/Fire_Down_Distractor.gif"",""img/Fire_Down_Distractor.gif"",""img/Fire_Down_Distractor.gif"",""img/Fire_Down_Distractor.gif"",""img/Fire_Down_Distractor.gif"",""img/Fire_Down_Distractor.gif"",""img/Fire_Down_Distractor.gif""]","7","targetUp_distractorsDown"
"","","","","","html-keyboard-response","136","700899","0.0-14.0-0.0-0.61","5fb754ca012e372845878671","619531dcf66c91622fa1b861","619596187bd028d33946da48","null","","null","","","","","main_T1_ITI","","","","",""
"","","","","","visual-search-circle","137","703553","0.0-14.0-0.0-1.61","5fb754ca012e372845878671","619531dcf66c91622fa1b861","619596187bd028d33946da48","1639.2999999970198","","d","true","[[484,63],[63,115],[115,536],[536,484]]","true","4","main_T2_Trial","d","img/Fire_Up_Target.gif","[""img/Fire_Down_Distractor.gif"",""img/Fire_Down_Distractor.gif"",""img/Fire_Down_Distractor.gif"",""img/Fire_Down_Distractor.gif"",""img/Fire_Down_Distractor.gif"",""img/Fire_Down_Distractor.gif"",""img/Fire_Down_Distractor.gif"",""img/Fire_Down_Distractor.gif"",""img/Fire_Down_Distractor.gif"",""img/Fire_Down_Distractor.gif"",""img/Fire_Down_Distractor.gif"",""img/Fire_Down_Distractor.gif""]","4","targetUp_distractorsDown"
"","","","","","html-keyboard-response","138","703555","0.0-14.0-0.0-0.62","5fb754ca012e372845878671","619531dcf66c91622fa1b861","619596187bd028d33946da48","null","","null","","","","","main_T1_ITI","","","","",""
"","","","","","visual-search-circle","139","708315","0.0-14.0-0.0-1.62","5fb754ca012e372845878671","619531dcf66c91622fa1b861","619596187bd028d33946da48","3742.699999988079","","s","true","[[599,284],[474,55],[218,11],[23,184],[36,444],[248,595],[499,524]]","false","7","main_T2_Trial","s","img/Fire_Down_Target.gif","[""img/Fire_Up_Distractor.gif"",""img/Fire_Up_Distractor.gif"",""img/Fire_Up_Distractor.gif"",""img/Fire_Up_Distractor.gif"",""img/Fire_Up_Distractor.gif"",""img/Fire_Up_Distractor.gif"",""img/Fire_Up_Distractor.gif"",""img/Fire_Up_Distractor.gif"",""img/Fire_Up_Distractor.gif"",""img/Fire_Up_Distractor.gif"",""img/Fire_Up_Distractor.gif"",""img/Fire_Up_Distractor.gif""]","7","targetDown_distractorsUp"
"","","","","","html-keyboard-response","140","708322","0.0-14.0-0.0-0.63","5fb754ca012e372845878671","619531dcf66c91622fa1b861","619596187bd028d33946da48","null","","null","","","","","main_T1_ITI","","","","",""
"","","","","","visual-search-circle","141","712697","0.0-14.0-0.0-1.63","5fb754ca012e372845878671","619531dcf66c91622fa1b861","619596187bd028d33946da48","3359.6000000089407","","d","true","[[42,145],[145,557],[557,454],[454,42]]","true","4","main_T2_Trial","d","img/Fire_Down_Target.gif","[""img/Fire_Up_Distractor.gif"",""img/Fire_Up_Distractor.gif"",""img/Fire_Up_Distractor.gif"",""img/Fire_Up_Distractor.gif"",""img/Fire_Up_Distractor.gif"",""img/Fire_Up_Distractor.gif"",""img/Fire_Up_Distractor.gif"",""img/Fire_Up_Distractor.gif"",""img/Fire_Up_Distractor.gif"",""img/Fire_Up_Distractor.gif"",""img/Fire_Up_Distractor.gif"",""img/Fire_Up_Distractor.gif""]","4","targetDown_distractorsUp"
"","","","","","html-keyboard-response","142","712699","0.0-14.0-0.0-0.64","5fb754ca012e372845878671","619531dcf66c91622fa1b861","619596187bd028d33946da48","null","","null","","","","","main_T1_ITI","","","","",""
"","","","","","visual-search-circle","143","715272","0.0-14.0-0.0-1.64","5fb754ca012e372845878671","619531dcf66c91622fa1b861","619596187bd028d33946da48","1559.5","","s","true","[[591,372],[538,117],[305,0],[69,108],[6,360],[164,567],[424,572]]","false","7","main_T2_Trial","s","img/Fire_Up_Target.gif","[""img/Fire_Down_Distractor.gif"",""img/Fire_Down_Distractor.gif"",""img/Fire_Down_Distractor.gif"",""img/Fire_Down_Distractor.gif"",""img/Fire_Down_Distractor.gif"",""img/Fire_Down_Distractor.gif"",""img/Fire_Down_Distractor.gif"",""img/Fire_Down_Distractor.gif"",""img/Fire_Down_Distractor.gif"",""img/Fire_Down_Distractor.gif"",""img/Fire_Down_Distractor.gif"",""img/Fire_Down_Distractor.gif""]","7","targetUp_distractorsDown"
"","","","","","html-keyboard-response","144","715275","0.0-14.0-0.0-0.65","5fb754ca012e372845878671","619531dcf66c91622fa1b861","619596187bd028d33946da48","null","","null","","","","","main_T1_ITI","","","","",""
"","","","","","visual-search-circle","145","719428","0.0-14.0-0.0-1.65","5fb754ca012e372845878671","619531dcf66c91622fa1b861","619596187bd028d33946da48","3134.2000000029802","","s","true","[[596,346],[488,66],[192,19],[3,253],[111,533],[407,580]]","false","6","main_T2_Trial","s","img/Fire_Up_Target.gif","[""img/Fire_Down_Distractor.gif"",""img/Fire_Down_Distractor.gif"",""img/Fire_Down_Distractor.gif"",""img/Fire_Down_Distractor.gif"",""img/Fire_Down_Distractor.gif"",""img/Fire_Down_Distractor.gif"",""img/Fire_Down_Distractor.gif"",""img/Fire_Down_Distractor.gif"",""img/Fire_Down_Distractor.gif"",""img/Fire_Down_Distractor.gif"",""img/Fire_Down_Distractor.gif"",""img/Fire_Down_Distractor.gif""]","6","targetUp_distractorsDown"
"","","","","","html-keyboard-response","146","719436","0.0-14.0-0.0-0.66","5fb754ca012e372845878671","619531dcf66c91622fa1b861","619596187bd028d33946da48","null","","null","","","","","main_T1_ITI","","","","",""
"","","","","","visual-search-circle","147","723425","0.0-14.0-0.0-1.66","5fb754ca012e372845878671","619531dcf66c91622fa1b861","619596187bd028d33946da48","2970.1000000089407","","s","true","[[95,80],[28,426],[336,597],[594,357],[445,37]]","false","5","main_T2_Trial","s","img/Fire_Down_Target.gif","[""img/Fire_Up_Distractor.gif"",""img/Fire_Up_Distractor.gif"",""img/Fire_Up_Distractor.gif"",""img/Fire_Up_Distractor.gif"",""img/Fire_Up_Distractor.gif"",""img/Fire_Up_Distractor.gif"",""img/Fire_Up_Distractor.gif"",""img/Fire_Up_Distractor.gif"",""img/Fire_Up_Distractor.gif"",""img/Fire_Up_Distractor.gif"",""img/Fire_Up_Distractor.gif"",""img/Fire_Up_Distractor.gif""]","5","targetDown_distractorsUp"
"","","","","","html-keyboard-response","148","723428","0.0-14.0-0.0-0.67","5fb754ca012e372845878671","619531dcf66c91622fa1b861","619596187bd028d33946da48","null","","null","","","","","main_T1_ITI","","","","",""
"","","","","","visual-search-circle","149","727264","0.0-14.0-0.0-1.67","5fb754ca012e372845878671","619531dcf66c91622fa1b861","619596187bd028d33946da48","2821.6000000089407","","d","true","[[247,595],[595,352],[352,4],[4,247]]","true","4","main_T2_Trial","d","img/Fire_Up_Target.gif","[""img/Fire_Down_Distractor.gif"",""img/Fire_Down_Distractor.gif"",""img/Fire_Down_Distractor.gif"",""img/Fire_Down_Distractor.gif"",""img/Fire_Down_Distractor.gif"",""img/Fire_Down_Distractor.gif"",""img/Fire_Down_Distractor.gif"",""img/Fire_Down_Distractor.gif"",""img/Fire_Down_Distractor.gif"",""img/Fire_Down_Distractor.gif"",""img/Fire_Down_Distractor.gif"",""img/Fire_Down_Distractor.gif""]","4","targetUp_distractorsDown"
"","","","","","html-keyboard-response","150","727282","0.0-14.0-0.0-0.68","5fb754ca012e372845878671","619531dcf66c91622fa1b861","619596187bd028d33946da48","null","","null","","","","","main_T1_ITI","","","","",""
"","","","","","visual-search-circle","151","736531","0.0-14.0-0.0-1.68","5fb754ca012e372845878671","619531dcf66c91622fa1b861","619596187bd028d33946da48","8234.40000000596","","s","false","[[346,596],[542,476],[596,253],[476,57],[253,3],[57,123],[3,346],[123,542]]","true","8","main_T2_Trial","d","img/Fire_Up_Target.gif","[""img/Fire_Down_Distractor.gif"",""img/Fire_Down_Distractor.gif"",""img/Fire_Down_Distractor.gif"",""img/Fire_Down_Distractor.gif"",""img/Fire_Down_Distractor.gif"",""img/Fire_Down_Distractor.gif"",""img/Fire_Down_Distractor.gif"",""img/Fire_Down_Distractor.gif"",""img/Fire_Down_Distractor.gif"",""img/Fire_Down_Distractor.gif"",""img/Fire_Down_Distractor.gif"",""img/Fire_Down_Distractor.gif""]","8","targetUp_distractorsDown"
"","","","","","html-keyboard-response","152","736535","0.0-14.0-0.0-0.69","5fb754ca012e372845878671","619531dcf66c91622fa1b861","619596187bd028d33946da48","null","","null","","","","","main_T1_ITI","","","","",""
"","","","","","visual-search-circle","153","742776","0.0-14.0-0.0-1.69","5fb754ca012e372845878671","619531dcf66c91622fa1b861","619596187bd028d33946da48","5220","","s","true","[[562,445],[577,185],[383,11],[126,55],[0,282],[99,523],[349,595]]","false","7","main_T2_Trial","s","img/Fire_Down_Target.gif","[""img/Fire_Up_Distractor.gif"",""img/Fire_Up_Distractor.gif"",""img/Fire_Up_Distractor.gif"",""img/Fire_Up_Distractor.gif"",""img/Fire_Up_Distractor.gif"",""img/Fire_Up_Distractor.gif"",""img/Fire_Up_Distractor.gif"",""img/Fire_Up_Distractor.gif"",""img/Fire_Up_Distractor.gif"",""img/Fire_Up_Distractor.gif"",""img/Fire_Up_Distractor.gif"",""img/Fire_Up_Distractor.gif""]","7","targetDown_distractorsUp"
"","","","","","html-keyboard-response","154","742779","0.0-14.0-0.0-0.70","5fb754ca012e372845878671","619531dcf66c91622fa1b861","619596187bd028d33946da48","null","","null","","","","","main_T1_ITI","","","","",""
"","","","","","visual-search-circle","155","746802","0.0-14.0-0.0-1.70","5fb754ca012e372845878671","619531dcf66c91622fa1b861","619596187bd028d33946da48","3013.7999999970198","","s","true","[[21,187],[63,484],[341,597],[578,412],[536,115],[258,2]]","false","6","main_T2_Trial","s","img/Fire_Up_Target.gif","[""img/Fire_Down_Distractor.gif"",""img/Fire_Down_Distractor.gif"",""img/Fire_Down_Distractor.gif"",""img/Fire_Down_Distractor.gif"",""img/Fire_Down_Distractor.gif"",""img/Fire_Down_Distractor.gif"",""img/Fire_Down_Distractor.gif"",""img/Fire_Down_Distractor.gif"",""img/Fire_Down_Distractor.gif"",""img/Fire_Down_Distractor.gif"",""img/Fire_Down_Distractor.gif"",""img/Fire_Down_Distractor.gif""]","6","targetUp_distractorsDown"
"","","","","","html-keyboard-response","156","746804","0.0-14.0-0.0-0.71","5fb754ca012e372845878671","619531dcf66c91622fa1b861","619596187bd028d33946da48","null","","null","","","","","main_T1_ITI","","","","",""
"","","","","","visual-search-circle","157","749592","0.0-14.0-0.0-1.71","5fb754ca012e372845878671","619531dcf66c91622fa1b861","619596187bd028d33946da48","1773.5","","d","true","[[11,217],[132,548],[484,536],[581,197],[289,0]]","true","5","main_T2_Trial","d","img/Fire_Up_Target.gif","[""img/Fire_Down_Distractor.gif"",""img/Fire_Down_Distractor.gif"",""img/Fire_Down_Distractor.gif"",""img/Fire_Down_Distractor.gif"",""img/Fire_Down_Distractor.gif"",""img/Fire_Down_Distractor.gif"",""img/Fire_Down_Distractor.gif"",""img/Fire_Down_Distractor.gif"",""img/Fire_Down_Distractor.gif"",""img/Fire_Down_Distractor.gif"",""img/Fire_Down_Distractor.gif"",""img/Fire_Down_Distractor.gif""]","5","targetUp_distractorsDown"
"","","","","","html-keyboard-response","158","749595","0.0-14.0-0.0-0.72","5fb754ca012e372845878671","619531dcf66c91622fa1b861","619596187bd028d33946da48","null","","null","","","","","main_T1_ITI","","","","",""
"","","","","","visual-search-circle","159","760635","0.0-14.0-0.0-1.72","5fb754ca012e372845878671","619531dcf66c91622fa1b861","619596187bd028d33946da48","10026.39999999106","","s","true","[[136,48],[48,463],[463,551],[551,136]]","false","4","main_T2_Trial","s","img/Fire_Down_Target.gif","[""img/Fire_Up_Distractor.gif"",""img/Fire_Up_Distractor.gif"",""img/Fire_Up_Distractor.gif"",""img/Fire_Up_Distractor.gif"",""img/Fire_Up_Distractor.gif"",""img/Fire_Up_Distractor.gif"",""img/Fire_Up_Distractor.gif"",""img/Fire_Up_Distractor.gif"",""img/Fire_Up_Distractor.gif"",""img/Fire_Up_Distractor.gif"",""img/Fire_Up_Distractor.gif"",""img/Fire_Up_Distractor.gif""]","4","targetDown_distractorsUp"
"","","","","","html-keyboard-response","160","760642","0.0-14.0-0.0-0.73","5fb754ca012e372845878671","619531dcf66c91622fa1b861","619596187bd028d33946da48","null","","null","","","","","main_T1_ITI","","","","",""
"","","","","","visual-search-circle","161","764153","0.0-14.0-0.0-1.73","5fb754ca012e372845878671","619531dcf66c91622fa1b861","619596187bd028d33946da48","2505.0999999940395","","d","true","[[484,536],[536,115],[115,63],[63,484]]","true","4","main_T2_Trial","d","img/Fire_Down_Target.gif","[""img/Fire_Up_Distractor.gif"",""img/Fire_Up_Distractor.gif"",""img/Fire_Up_Distractor.gif"",""img/Fire_Up_Distractor.gif"",""img/Fire_Up_Distractor.gif"",""img/Fire_Up_Distractor.gif"",""img/Fire_Up_Distractor.gif"",""img/Fire_Up_Distractor.gif"",""img/Fire_Up_Distractor.gif"",""img/Fire_Up_Distractor.gif"",""img/Fire_Up_Distractor.gif"",""img/Fire_Up_Distractor.gif""]","4","targetDown_distractorsUp"
"","","","","","html-keyboard-response","162","764155","0.0-14.0-0.0-0.74","5fb754ca012e372845878671","619531dcf66c91622fa1b861","619596187bd028d33946da48","null","","null","","","","","main_T1_ITI","","","","",""
"","","","","","visual-search-circle","163","767481","0.0-14.0-0.0-1.74","5fb754ca012e372845878671","619531dcf66c91622fa1b861","619596187bd028d33946da48","2320.2999999970198","","s","true","[[407,580],[580,192],[192,19],[19,407]]","false","4","main_T2_Trial","s","img/Fire_Down_Target.gif","[""img/Fire_Up_Distractor.gif"",""img/Fire_Up_Distractor.gif"",""img/Fire_Up_Distractor.gif"",""img/Fire_Up_Distractor.gif"",""img/Fire_Up_Distractor.gif"",""img/Fire_Up_Distractor.gif"",""img/Fire_Up_Distractor.gif"",""img/Fire_Up_Distractor.gif"",""img/Fire_Up_Distractor.gif"",""img/Fire_Up_Distractor.gif"",""img/Fire_Up_Distractor.gif"",""img/Fire_Up_Distractor.gif""]","4","targetDown_distractorsUp"
"","","","","","html-keyboard-response","164","767484","0.0-14.0-0.0-0.75","5fb754ca012e372845878671","619531dcf66c91622fa1b861","619596187bd028d33946da48","null","","null","","","","","main_T1_ITI","","","","",""
"","","","","","visual-search-circle","165","770931","0.0-14.0-0.0-1.75","5fb754ca012e372845878671","619531dcf66c91622fa1b861","619596187bd028d33946da48","2429.2999999970198","","d","true","[[472,545],[595,352],[545,127],[352,4],[127,54],[4,247],[54,472],[247,595]]","true","8","main_T2_Trial","d","img/Fire_Up_Target.gif","[""img/Fire_Down_Distractor.gif"",""img/Fire_Down_Distractor.gif"",""img/Fire_Down_Distractor.gif"",""img/Fire_Down_Distractor.gif"",""img/Fire_Down_Distractor.gif"",""img/Fire_Down_Distractor.gif"",""img/Fire_Down_Distractor.gif"",""img/Fire_Down_Distractor.gif"",""img/Fire_Down_Distractor.gif"",""img/Fire_Down_Distractor.gif"",""img/Fire_Down_Distractor.gif"",""img/Fire_Down_Distractor.gif""]","8","targetUp_distractorsDown"
"","","","","","html-keyboard-response","166","770934","0.0-14.0-0.0-0.76","5fb754ca012e372845878671","619531dcf66c91622fa1b861","619596187bd028d33946da48","null","","null","","","","","main_T1_ITI","","","","",""
"","","","","","visual-search-circle","167","773753","0.0-14.0-0.0-1.76","5fb754ca012e372845878671","619531dcf66c91622fa1b861","619596187bd028d33946da48","1798.7000000029802","","d","true","[[28,173],[54,472],[326,598],[571,426],[545,127],[273,1]]","true","6","main_T2_Trial","d","img/Fire_Up_Target.gif","[""img/Fire_Down_Distractor.gif"",""img/Fire_Down_Distractor.gif"",""img/Fire_Down_Distractor.gif"",""img/Fire_Down_Distractor.gif"",""img/Fire_Down_Distractor.gif"",""img/Fire_Down_Distractor.gif"",""img/Fire_Down_Distractor.gif"",""img/Fire_Down_Distractor.gif"",""img/Fire_Down_Distractor.gif"",""img/Fire_Down_Distractor.gif"",""img/Fire_Down_Distractor.gif"",""img/Fire_Down_Distractor.gif""]","6","targetUp_distractorsDown"
"","","","","","html-keyboard-response","168","773767","0.0-14.0-0.0-0.77","5fb754ca012e372845878671","619531dcf66c91622fa1b861","619596187bd028d33946da48","null","","null","","","","","main_T1_ITI","","","","",""
"","","","","","visual-search-circle","169","781771","0.0-14.0-0.0-1.77","5fb754ca012e372845878671","619531dcf66c91622fa1b861","619596187bd028d33946da48","6984.300000011921","","d","true","[[598,273],[367,7],[42,145],[73,496],[417,576]]","true","5","main_T2_Trial","d","img/Fire_Down_Target.gif","[""img/Fire_Up_Distractor.gif"",""img/Fire_Up_Distractor.gif"",""img/Fire_Up_Distractor.gif"",""img/Fire_Up_Distractor.gif"",""img/Fire_Up_Distractor.gif"",""img/Fire_Up_Distractor.gif"",""img/Fire_Up_Distractor.gif"",""img/Fire_Up_Distractor.gif"",""img/Fire_Up_Distractor.gif"",""img/Fire_Up_Distractor.gif"",""img/Fire_Up_Distractor.gif"",""img/Fire_Up_Distractor.gif""]","5","targetDown_distractorsUp"
"","","","","","html-keyboard-response","170","781773","0.0-14.0-0.0-0.78","5fb754ca012e372845878671","619531dcf66c91622fa1b861","619596187bd028d33946da48","null","","null","","","","","main_T1_ITI","","","","",""
"","","","","","visual-search-circle","171","784425","0.0-14.0-0.0-1.78","5fb754ca012e372845878671","619531dcf66c91622fa1b861","619596187bd028d33946da48","1632.5","","d","true","[[564,440],[515,91],[168,30],[2,341],[247,595]]","true","5","main_T2_Trial","d","img/Fire_Down_Target.gif","[""img/Fire_Up_Distractor.gif"",""img/Fire_Up_Distractor.gif"",""img/Fire_Up_Distractor.gif"",""img/Fire_Up_Distractor.gif"",""img/Fire_Up_Distractor.gif"",""img/Fire_Up_Distractor.gif"",""img/Fire_Up_Distractor.gif"",""img/Fire_Up_Distractor.gif"",""img/Fire_Up_Distractor.gif"",""img/Fire_Up_Distractor.gif"",""img/Fire_Up_Distractor.gif"",""img/Fire_Up_Distractor.gif""]","5","targetDown_distractorsUp"
"","","","","","html-keyboard-response","172","791217","0.0-14.0-0.0-0.79","5fb754ca012e372845878671","619531dcf66c91622fa1b861","619596187bd028d33946da48","6791.0999999940395","Wow! You've completed 80 out of 160 trials! </p> <p>  </p><p> Take a quick break, then press any key when you're ready to continue.","enter","","","","","main_T1_ITI","","","","",""
"","","","","","visual-search-circle","173","795346","0.0-14.0-0.0-1.79","5fb754ca012e372845878671","619531dcf66c91622fa1b861","619596187bd028d33946da48","3103.5999999940395","","d","true","[[454,557],[591,372],[557,145],[372,8],[145,42],[8,227],[42,454],[227,591]]","true","8","main_T2_Trial","d","img/Fire_Down_Target.gif","[""img/Fire_Up_Distractor.gif"",""img/Fire_Up_Distractor.gif"",""img/Fire_Up_Distractor.gif"",""img/Fire_Up_Distractor.gif"",""img/Fire_Up_Distractor.gif"",""img/Fire_Up_Distractor.gif"",""img/Fire_Up_Distractor.gif"",""img/Fire_Up_Distractor.gif"",""img/Fire_Up_Distractor.gif"",""img/Fire_Up_Distractor.gif"",""img/Fire_Up_Distractor.gif"",""img/Fire_Up_Distractor.gif""]","8","targetDown_distractorsUp"
"","","","","","html-keyboard-response","174","795348","0.0-14.0-0.0-0.80","5fb754ca012e372845878671","619531dcf66c91622fa1b861","619596187bd028d33946da48","null","","null","","","","","main_T1_ITI","","","","",""
"","","","","","visual-search-circle","175","800593","0.0-14.0-0.0-1.80","5fb754ca012e372845878671","619531dcf66c91622fa1b861","619596187bd028d33946da48","4221.9000000059605","","d","true","[[70,492],[352,595],[581,402],[529,107],[247,4],[18,197]]","true","6","main_T2_Trial","d","img/Fire_Down_Target.gif","[""img/Fire_Up_Distractor.gif"",""img/Fire_Up_Distractor.gif"",""img/Fire_Up_Distractor.gif"",""img/Fire_Up_Distractor.gif"",""img/Fire_Up_Distractor.gif"",""img/Fire_Up_Distractor.gif"",""img/Fire_Up_Distractor.gif"",""img/Fire_Up_Distractor.gif"",""img/Fire_Up_Distractor.gif"",""img/Fire_Up_Distractor.gif"",""img/Fire_Up_Distractor.gif"",""img/Fire_Up_Distractor.gif""]","6","targetDown_distractorsUp"
"","","","","","html-keyboard-response","176","800596","0.0-14.0-0.0-0.81","5fb754ca012e372845878671","619531dcf66c91622fa1b861","619596187bd028d33946da48","null","","null","","","","","main_T1_ITI","","","","",""
"","","","","","visual-search-circle","177","808090","0.0-14.0-0.0-1.81","5fb754ca012e372845878671","619531dcf66c91622fa1b861","619596187bd028d33946da48","6482.20000000298","","d","true","[[426,28],[197,18],[28,173],[18,402],[173,571],[402,581],[571,426],[581,197]]","true","8","main_T2_Trial","d","img/Fire_Down_Target.gif","[""img/Fire_Up_Distractor.gif"",""img/Fire_Up_Distractor.gif"",""img/Fire_Up_Distractor.gif"",""img/Fire_Up_Distractor.gif"",""img/Fire_Up_Distractor.gif"",""img/Fire_Up_Distractor.gif"",""img/Fire_Up_Distractor.gif"",""img/Fire_Up_Distractor.gif"",""img/Fire_Up_Distractor.gif"",""img/Fire_Up_Distractor.gif"",""img/Fire_Up_Distractor.gif"",""img/Fire_Up_Distractor.gif""]","8","targetDown_distractorsUp"
"","","","","","html-keyboard-response","178","808092","0.0-14.0-0.0-0.82","5fb754ca012e372845878671","619531dcf66c91622fa1b861","619596187bd028d33946da48","null","","null","","","","","main_T1_ITI","","","","",""
"","","","","","visual-search-circle","179","813120","0.0-14.0-0.0-1.82","5fb754ca012e372845878671","619531dcf66c91622fa1b861","619596187bd028d33946da48","4004.0999999940395","","s","false","[[263,597],[484,536],[597,336],[536,115],[336,2],[115,63],[2,263],[63,484]]","true","8","main_T2_Trial","d","img/Fire_Up_Target.gif","[""img/Fire_Down_Distractor.gif"",""img/Fire_Down_Distractor.gif"",""img/Fire_Down_Distractor.gif"",""img/Fire_Down_Distractor.gif"",""img/Fire_Down_Distractor.gif"",""img/Fire_Down_Distractor.gif"",""img/Fire_Down_Distractor.gif"",""img/Fire_Down_Distractor.gif"",""img/Fire_Down_Distractor.gif"",""img/Fire_Down_Distractor.gif"",""img/Fire_Down_Distractor.gif"",""img/Fire_Down_Distractor.gif""]","8","targetUp_distractorsDown"
"","","","","","html-keyboard-response","180","813124","0.0-14.0-0.0-0.83","5fb754ca012e372845878671","619531dcf66c91622fa1b861","619596187bd028d33946da48","null","","null","","","","","main_T1_ITI","","","","",""
"","","","","","visual-search-circle","181","817016","0.0-14.0-0.0-1.83","5fb754ca012e372845878671","619531dcf66c91622fa1b861","619596187bd028d33946da48","2881.7999999970198","","d","true","[[492,529],[599,292],[481,60],[225,9],[26,176],[33,436],[240,594]]","true","7","main_T2_Trial","d","img/Fire_Up_Target.gif","[""img/Fire_Down_Distractor.gif"",""img/Fire_Down_Distractor.gif"",""img/Fire_Down_Distractor.gif"",""img/Fire_Down_Distractor.gif"",""img/Fire_Down_Distractor.gif"",""img/Fire_Down_Distractor.gif"",""img/Fire_Down_Distractor.gif"",""img/Fire_Down_Distractor.gif"",""img/Fire_Down_Distractor.gif"",""img/Fire_Down_Distractor.gif"",""img/Fire_Down_Distractor.gif"",""img/Fire_Down_Distractor.gif""]","7","targetUp_distractorsDown"
"","","","","","html-keyboard-response","182","817032","0.0-14.0-0.0-0.84","5fb754ca012e372845878671","619531dcf66c91622fa1b861","619596187bd028d33946da48","null","","null","","","","","main_T1_ITI","","","","",""
"","","","","","visual-search-circle","183","820371","0.0-14.0-0.0-1.84","5fb754ca012e372845878671","619531dcf66c91622fa1b861","619596187bd028d33946da48","2319.5","","s","true","[[496,73],[202,16],[5,242],[103,526],[397,583],[594,357]]","false","6","main_T2_Trial","s","img/Fire_Up_Target.gif","[""img/Fire_Down_Distractor.gif"",""img/Fire_Down_Distractor.gif"",""img/Fire_Down_Distractor.gif"",""img/Fire_Down_Distractor.gif"",""img/Fire_Down_Distractor.gif"",""img/Fire_Down_Distractor.gif"",""img/Fire_Down_Distractor.gif"",""img/Fire_Down_Distractor.gif"",""img/Fire_Down_Distractor.gif"",""img/Fire_Down_Distractor.gif"",""img/Fire_Down_Distractor.gif"",""img/Fire_Down_Distractor.gif""]","6","targetUp_distractorsDown"
"","","","","","html-keyboard-response","184","820373","0.0-14.0-0.0-0.85","5fb754ca012e372845878671","619531dcf66c91622fa1b861","619596187bd028d33946da48","null","","null","","","","","main_T1_ITI","","","","",""
"","","","","","visual-search-circle","185","822856","0.0-14.0-0.0-1.85","5fb754ca012e372845878671","619531dcf66c91622fa1b861","619596187bd028d33946da48","1464.2000000029802","","d","true","[[336,2],[115,63],[2,263],[63,484],[263,597],[484,536],[597,336],[536,115]]","true","8","main_T2_Trial","d","img/Fire_Up_Target.gif","[""img/Fire_Down_Distractor.gif"",""img/Fire_Down_Distractor.gif"",""img/Fire_Down_Distractor.gif"",""img/Fire_Down_Distractor.gif"",""img/Fire_Down_Distractor.gif"",""img/Fire_Down_Distractor.gif"",""img/Fire_Down_Distractor.gif"",""img/Fire_Down_Distractor.gif"",""img/Fire_Down_Distractor.gif"",""img/Fire_Down_Distractor.gif"",""img/Fire_Down_Distractor.gif"",""img/Fire_Down_Distractor.gif""]","8","targetUp_distractorsDown"
"","","","","","html-keyboard-response","186","822858","0.0-14.0-0.0-0.86","5fb754ca012e372845878671","619531dcf66c91622fa1b861","619596187bd028d33946da48","null","","null","","","","","main_T1_ITI","","","","",""
"","","","","","visual-search-circle","187","825128","0.0-14.0-0.0-1.86","5fb754ca012e372845878671","619531dcf66c91622fa1b861","619596187bd028d33946da48","1263.9000000059605","","s","true","[[253,3],[19,192],[66,488],[346,596],[580,407],[533,111]]","false","6","main_T2_Trial","s","img/Fire_Up_Target.gif","[""img/Fire_Down_Distractor.gif"",""img/Fire_Down_Distractor.gif"",""img/Fire_Down_Distractor.gif"",""img/Fire_Down_Distractor.gif"",""img/Fire_Down_Distractor.gif"",""img/Fire_Down_Distractor.gif"",""img/Fire_Down_Distractor.gif"",""img/Fire_Down_Distractor.gif"",""img/Fire_Down_Distractor.gif"",""img/Fire_Down_Distractor.gif"",""img/Fire_Down_Distractor.gif"",""img/Fire_Down_Distractor.gif""]","6","targetUp_distractorsDown"
"","","","","","html-keyboard-response","188","825132","0.0-14.0-0.0-0.87","5fb754ca012e372845878671","619531dcf66c91622fa1b861","619596187bd028d33946da48","null","","null","","","","","main_T1_ITI","","","","",""
"","","","","","visual-search-circle","189","828344","0.0-14.0-0.0-1.87","5fb754ca012e372845878671","619531dcf66c91622fa1b861","619596187bd028d33946da48","2207.5999999940395","","s","true","[[0,320],[320,599],[599,279],[279,0]]","false","4","main_T2_Trial","s","img/Fire_Down_Target.gif","[""img/Fire_Up_Distractor.gif"",""img/Fire_Up_Distractor.gif"",""img/Fire_Up_Distractor.gif"",""img/Fire_Up_Distractor.gif"",""img/Fire_Up_Distractor.gif"",""img/Fire_Up_Distractor.gif"",""img/Fire_Up_Distractor.gif"",""img/Fire_Up_Distractor.gif"",""img/Fire_Up_Distractor.gif"",""img/Fire_Up_Distractor.gif"",""img/Fire_Up_Distractor.gif"",""img/Fire_Up_Distractor.gif""]","4","targetDown_distractorsUp"
"","","","","","html-keyboard-response","190","828352","0.0-14.0-0.0-0.88","5fb754ca012e372845878671","619531dcf66c91622fa1b861","619596187bd028d33946da48","null","","null","","","","","main_T1_ITI","","","","",""
"","","","","","visual-search-circle","191","831067","0.0-14.0-0.0-1.88","5fb754ca012e372845878671","619531dcf66c91622fa1b861","619596187bd028d33946da48","1706","","s","true","[[564,159],[247,4],[2,258],[168,569],[515,508]]","false","5","main_T2_Trial","s","img/Fire_Up_Target.gif","[""img/Fire_Down_Distractor.gif"",""img/Fire_Down_Distractor.gif"",""img/Fire_Down_Distractor.gif"",""img/Fire_Down_Distractor.gif"",""img/Fire_Down_Distractor.gif"",""img/Fire_Down_Distractor.gif"",""img/Fire_Down_Distractor.gif"",""img/Fire_Down_Distractor.gif"",""img/Fire_Down_Distractor.gif"",""img/Fire_Down_Distractor.gif"",""img/Fire_Down_Distractor.gif"",""img/Fire_Down_Distractor.gif""]","5","targetUp_distractorsDown"
"","","","","","html-keyboard-response","192","831069","0.0-14.0-0.0-0.89","5fb754ca012e372845878671","619531dcf66c91622fa1b861","619596187bd028d33946da48","null","","null","","","","","main_T1_ITI","","","","",""
"","","","","","visual-search-circle","193","834088","0.0-14.0-0.0-1.89","5fb754ca012e372845878671","619531dcf66c91622fa1b861","619596187bd028d33946da48","2003.7999999970198","","d","true","[[599,284],[474,55],[218,11],[23,184],[36,444],[248,595],[499,524]]","true","7","main_T2_Trial","d","img/Fire_Up_Target.gif","[""img/Fire_Down_Distractor.gif"",""img/Fire_Down_Distractor.gif"",""img/Fire_Down_Distractor.gif"",""img/Fire_Down_Distractor.gif"",""img/Fire_Down_Distractor.gif"",""img/Fire_Down_Distractor.gif"",""img/Fire_Down_Distractor.gif"",""img/Fire_Down_Distractor.gif"",""img/Fire_Down_Distractor.gif"",""img/Fire_Down_Distractor.gif"",""img/Fire_Down_Distractor.gif"",""img/Fire_Down_Distractor.gif""]","7","targetUp_distractorsDown"
"","","","","","html-keyboard-response","194","834092","0.0-14.0-0.0-0.90","5fb754ca012e372845878671","619531dcf66c91622fa1b861","619596187bd028d33946da48","null","","null","","","","","main_T1_ITI","","","","",""
"","","","","","visual-search-circle","195","836905","0.0-14.0-0.0-1.90","5fb754ca012e372845878671","619531dcf66c91622fa1b861","619596187bd028d33946da48","1799.5","","s","true","[[2,258],[60,480],[258,597],[480,539],[597,341],[539,119],[341,2],[119,60]]","false","8","main_T2_Trial","s","img/Fire_Down_Target.gif","[""img/Fire_Up_Distractor.gif"",""img/Fire_Up_Distractor.gif"",""img/Fire_Up_Distractor.gif"",""img/Fire_Up_Distractor.gif"",""img/Fire_Up_Distractor.gif"",""img/Fire_Up_Distractor.gif"",""img/Fire_Up_Distractor.gif"",""img/Fire_Up_Distractor.gif"",""img/Fire_Up_Distractor.gif"",""img/Fire_Up_Distractor.gif"",""img/Fire_Up_Distractor.gif"",""img/Fire_Up_Distractor.gif""]","8","targetDown_distractorsUp"
"","","","","","html-keyboard-response","196","836907","0.0-14.0-0.0-0.91","5fb754ca012e372845878671","619531dcf66c91622fa1b861","619596187bd028d33946da48","null","","null","","","","","main_T1_ITI","","","","",""
"","","","","","visual-search-circle","197","839346","0.0-14.0-0.0-1.91","5fb754ca012e372845878671","619531dcf66c91622fa1b861","619596187bd028d33946da48","1429.5","","s","true","[[32,163],[87,512],[436,567],[596,253],[346,3]]","false","5","main_T2_Trial","s","img/Fire_Up_Target.gif","[""img/Fire_Down_Distractor.gif"",""img/Fire_Down_Distractor.gif"",""img/Fire_Down_Distractor.gif"",""img/Fire_Down_Distractor.gif"",""img/Fire_Down_Distractor.gif"",""img/Fire_Down_Distractor.gif"",""img/Fire_Down_Distractor.gif"",""img/Fire_Down_Distractor.gif"",""img/Fire_Down_Distractor.gif"",""img/Fire_Down_Distractor.gif"",""img/Fire_Down_Distractor.gif"",""img/Fire_Down_Distractor.gif""]","5","targetUp_distractorsDown"
"","","","","","html-keyboard-response","198","839348","0.0-14.0-0.0-0.92","5fb754ca012e372845878671","619531dcf66c91622fa1b861","619596187bd028d33946da48","null","","null","","","","","main_T1_ITI","","","","",""
"","","","","","visual-search-circle","199","841812","0.0-14.0-0.0-1.92","5fb754ca012e372845878671","619531dcf66c91622fa1b861","619596187bd028d33946da48","1455.5","","s","true","[[10,377],[180,574],[440,565],[594,355],[527,104],[288,0],[58,121]]","false","7","main_T2_Trial","s","img/Fire_Up_Target.gif","[""img/Fire_Down_Distractor.gif"",""img/Fire_Down_Distractor.gif"",""img/Fire_Down_Distractor.gif"",""img/Fire_Down_Distractor.gif"",""img/Fire_Down_Distractor.gif"",""img/Fire_Down_Distractor.gif"",""img/Fire_Down_Distractor.gif"",""img/Fire_Down_Distractor.gif"",""img/Fire_Down_Distractor.gif"",""img/Fire_Down_Distractor.gif"",""img/Fire_Down_Distractor.gif"",""img/Fire_Down_Distractor.gif""]","7","targetUp_distractorsDown"
"","","","","","html-keyboard-response","200","841814","0.0-14.0-0.0-0.93","5fb754ca012e372845878671","619531dcf66c91622fa1b861","619596187bd028d33946da48","null","","null","","","","","main_T1_ITI","","","","",""
"","","","","","visual-search-circle","201","846801","0.0-14.0-0.0-1.93","5fb754ca012e372845878671","619531dcf66c91622fa1b861","619596187bd028d33946da48","3968.800000011921","","s","true","[[557,454],[454,42],[42,145],[145,557]]","false","4","main_T2_Trial","s","img/Fire_Down_Target.gif","[""img/Fire_Up_Distractor.gif"",""img/Fire_Up_Distractor.gif"",""img/Fire_Up_Distractor.gif"",""img/Fire_Up_Distractor.gif"",""img/Fire_Up_Distractor.gif"",""img/Fire_Up_Distractor.gif"",""img/Fire_Up_Distractor.gif"",""img/Fire_Up_Distractor.gif"",""img/Fire_Up_Distractor.gif"",""img/Fire_Up_Distractor.gif"",""img/Fire_Up_Distractor.gif"",""img/Fire_Up_Distractor.gif""]","4","targetDown_distractorsUp"
"","","","","","html-keyboard-response","202","846816","0.0-14.0-0.0-0.94","5fb754ca012e372845878671","619531dcf66c91622fa1b861","619596187bd028d33946da48","null","","null","","","","","main_T1_ITI","","","","",""
"","","","","","visual-search-circle","203","851625","0.0-14.0-0.0-1.94","5fb754ca012e372845878671","619531dcf66c91622fa1b861","619596187bd028d33946da48","3796.2000000029802","","s","true","[[598,331],[476,57],[177,25],[1,268],[123,542],[422,574]]","false","6","main_T2_Trial","s","img/Fire_Up_Target.gif","[""img/Fire_Down_Distractor.gif"",""img/Fire_Down_Distractor.gif"",""img/Fire_Down_Distractor.gif"",""img/Fire_Down_Distractor.gif"",""img/Fire_Down_Distractor.gif"",""img/Fire_Down_Distractor.gif"",""img/Fire_Down_Distractor.gif"",""img/Fire_Down_Distractor.gif"",""img/Fire_Down_Distractor.gif"",""img/Fire_Down_Distractor.gif"",""img/Fire_Down_Distractor.gif"",""img/Fire_Down_Distractor.gif""]","6","targetUp_distractorsDown"
"","","","","","html-keyboard-response","204","851626","0.0-14.0-0.0-0.95","5fb754ca012e372845878671","619531dcf66c91622fa1b861","619596187bd028d33946da48","null","","null","","","","","main_T1_ITI","","","","",""
"","","","","","visual-search-circle","205","856299","0.0-14.0-0.0-1.95","5fb754ca012e372845878671","619531dcf66c91622fa1b861","619596187bd028d33946da48","3655.9000000059605","","s","true","[[16,397],[199,582],[458,554],[597,335],[513,88],[267,1],[46,139]]","false","7","main_T2_Trial","s","img/Fire_Down_Target.gif","[""img/Fire_Up_Distractor.gif"",""img/Fire_Up_Distractor.gif"",""img/Fire_Up_Distractor.gif"",""img/Fire_Up_Distractor.gif"",""img/Fire_Up_Distractor.gif"",""img/Fire_Up_Distractor.gif"",""img/Fire_Up_Distractor.gif"",""img/Fire_Up_Distractor.gif"",""img/Fire_Up_Distractor.gif"",""img/Fire_Up_Distractor.gif"",""img/Fire_Up_Distractor.gif"",""img/Fire_Up_Distractor.gif""]","7","targetDown_distractorsUp"
"","","","","","html-keyboard-response","206","856301","0.0-14.0-0.0-0.96","5fb754ca012e372845878671","619531dcf66c91622fa1b861","619596187bd028d33946da48","null","","null","","","","","main_T1_ITI","","","","",""
"","","","","","visual-search-circle","207","858801","0.0-14.0-0.0-1.96","5fb754ca012e372845878671","619531dcf66c91622fa1b861","619596187bd028d33946da48","1479.7999999970198","","d","true","[[382,11],[126,55],[0,283],[100,523],[350,595],[562,444],[577,184]]","true","7","main_T2_Trial","d","img/Fire_Down_Target.gif","[""img/Fire_Up_Distractor.gif"",""img/Fire_Up_Distractor.gif"",""img/Fire_Up_Distractor.gif"",""img/Fire_Up_Distractor.gif"",""img/Fire_Up_Distractor.gif"",""img/Fire_Up_Distractor.gif"",""img/Fire_Up_Distractor.gif"",""img/Fire_Up_Distractor.gif"",""img/Fire_Up_Distractor.gif"",""img/Fire_Up_Distractor.gif"",""img/Fire_Up_Distractor.gif"",""img/Fire_Up_Distractor.gif""]","7","targetDown_distractorsUp"
"","","","","","html-keyboard-response","208","858818","0.0-14.0-0.0-0.97","5fb754ca012e372845878671","619531dcf66c91622fa1b861","619596187bd028d33946da48","null","","null","","","","","main_T1_ITI","","","","",""
"","","","","","visual-search-circle","209","862369","0.0-14.0-0.0-1.97","5fb754ca012e372845878671","619531dcf66c91622fa1b861","619596187bd028d33946da48","2533","","s","true","[[28,173],[95,519],[445,562],[594,242],[336,2]]","false","5","main_T2_Trial","s","img/Fire_Down_Target.gif","[""img/Fire_Up_Distractor.gif"",""img/Fire_Up_Distractor.gif"",""img/Fire_Up_Distractor.gif"",""img/Fire_Up_Distractor.gif"",""img/Fire_Up_Distractor.gif"",""img/Fire_Up_Distractor.gif"",""img/Fire_Up_Distractor.gif"",""img/Fire_Up_Distractor.gif"",""img/Fire_Up_Distractor.gif"",""img/Fire_Up_Distractor.gif"",""img/Fire_Up_Distractor.gif"",""img/Fire_Up_Distractor.gif""]","5","targetDown_distractorsUp"
"","","","","","html-keyboard-response","210","862371","0.0-14.0-0.0-0.98","5fb754ca012e372845878671","619531dcf66c91622fa1b861","619596187bd028d33946da48","null","","null","","","","","main_T1_ITI","","","","",""
"","","","","","visual-search-circle","211","865025","0.0-14.0-0.0-1.98","5fb754ca012e372845878671","619531dcf66c91622fa1b861","619596187bd028d33946da48","1639.7999999970198","","s","true","[[578,412],[412,21],[21,187],[187,578]]","false","4","main_T2_Trial","s","img/Fire_Up_Target.gif","[""img/Fire_Down_Distractor.gif"",""img/Fire_Down_Distractor.gif"",""img/Fire_Down_Distractor.gif"",""img/Fire_Down_Distractor.gif"",""img/Fire_Down_Distractor.gif"",""img/Fire_Down_Distractor.gif"",""img/Fire_Down_Distractor.gif"",""img/Fire_Down_Distractor.gif"",""img/Fire_Down_Distractor.gif"",""img/Fire_Down_Distractor.gif"",""img/Fire_Down_Distractor.gif"",""img/Fire_Down_Distractor.gif""]","4","targetUp_distractorsDown"
"","","","","","html-keyboard-response","212","872147","0.0-14.0-0.0-0.99","5fb754ca012e372845878671","619531dcf66c91622fa1b861","619596187bd028d33946da48","7121.29999999702","Wow! You've completed 100 out of 160 trials! </p> <p>  </p><p> Take a quick break, then press any key when you're ready to continue.","enter","","","","","main_T1_ITI","","","","",""
"","","","","","visual-search-circle","213","874881","0.0-14.0-0.0-1.99","5fb754ca012e372845878671","619531dcf66c91622fa1b861","619596187bd028d33946da48","1725.7999999970198","","s","true","[[127,545],[480,539],[583,202],[294,0],[13,212]]","false","5","main_T2_Trial","s","img/Fire_Up_Target.gif","[""img/Fire_Down_Distractor.gif"",""img/Fire_Down_Distractor.gif"",""img/Fire_Down_Distractor.gif"",""img/Fire_Down_Distractor.gif"",""img/Fire_Down_Distractor.gif"",""img/Fire_Down_Distractor.gif"",""img/Fire_Down_Distractor.gif"",""img/Fire_Down_Distractor.gif"",""img/Fire_Down_Distractor.gif"",""img/Fire_Down_Distractor.gif"",""img/Fire_Down_Distractor.gif"",""img/Fire_Down_Distractor.gif""]","5","targetUp_distractorsDown"
"","","","","","html-keyboard-response","214","874883","0.0-14.0-0.0-0.100","5fb754ca012e372845878671","619531dcf66c91622fa1b861","619596187bd028d33946da48","null","","null","","","","","main_T1_ITI","","","","",""
"","","","","","visual-search-circle","215","877361","0.0-14.0-0.0-1.100","5fb754ca012e372845878671","619531dcf66c91622fa1b861","619596187bd028d33946da48","1462.800000011921","","d","true","[[294,599],[508,515],[599,305],[515,91],[305,0],[91,84],[0,294],[84,508]]","true","8","main_T2_Trial","d","img/Fire_Up_Target.gif","[""img/Fire_Down_Distractor.gif"",""img/Fire_Down_Distractor.gif"",""img/Fire_Down_Distractor.gif"",""img/Fire_Down_Distractor.gif"",""img/Fire_Down_Distractor.gif"",""img/Fire_Down_Distractor.gif"",""img/Fire_Down_Distractor.gif"",""img/Fire_Down_Distractor.gif"",""img/Fire_Down_Distractor.gif"",""img/Fire_Down_Distractor.gif"",""img/Fire_Down_Distractor.gif"",""img/Fire_Down_Distractor.gif""]","8","targetUp_distractorsDown"
"","","","","","html-keyboard-response","216","877364","0.0-14.0-0.0-0.101","5fb754ca012e372845878671","619531dcf66c91622fa1b861","619596187bd028d33946da48","null","","null","","","","","main_T1_ITI","","","","",""
