"success","timeout","failed_images","failed_audio","failed_video","trial_type","trial_index","time_elapsed","internal_node_id","subject_id","study_id","session_id","rt","stimulus","response","correct","locations","target_present","set_size","task","correct_response","target","foilCM","setSizeCM","searchCondition"
"true","false","[]","[]","[]","preload","0","34979","0.0-0.0","5fbb42988a2ddbc42227e890","619531dcf66c91622fa1b861","619595b5fe19df9936f739a0","","","","","","","","","","","","",""
"true","","","","","fullscreen","1","40959","0.0-1.0","5fbb42988a2ddbc42227e890","619531dcf66c91622fa1b861","619595b5fe19df9936f739a0","","","","","","","","","","","","",""
"","","","","","html-keyboard-response","2","49832","0.0-2.0","5fbb42988a2ddbc42227e890","619531dcf66c91622fa1b861","619595b5fe19df9936f739a0","8872","What a beautiful Wednesday to do some awesome science! </p> <p>  </p><p> </p>
    By completing this survey or questionnaire, you are consenting to be in this research study. </p>
    Your participation is voluntary and you can stop at any time.
    <p> [Press any key to continue.] </p>
    
    "," ","","","","","","","","","",""
"","","","","","video-keyboard-response","3","79842","0.0-3.0","5fbb42988a2ddbc42227e890","619531dcf66c91622fa1b861","619595b5fe19df9936f739a0","30001","[""video/TaskInstructions.mp4""]"," ","","","","","","","","","",""
"","","","","","html-keyboard-response","4","86472","0.0-4.0","5fbb42988a2ddbc42227e890","619531dcf66c91622fa1b861","619595b5fe19df9936f739a0","6628","
    <p>First, we're going to do a few practice trials to make sure you understand the task. You will recieve feedback on each trial. </p>
    <p>[Press any key to begin the familiarization phase.]</p>
    "," ","","","","","","","","","",""
"","","","","","visual-search-circle","5","94953","0.0-5.0-0.0","5fbb42988a2ddbc42227e890","619531dcf66c91622fa1b861","619595b5fe19df9936f739a0","7409","","d","true","[[66,111],[111,533],[533,488],[488,66]]","true","4","training","d","","","",""
"","","","","","html-keyboard-response","6","97192","0.0-6.0","5fbb42988a2ddbc42227e890","619531dcf66c91622fa1b861","619595b5fe19df9936f739a0","2239"," <div style='float: center; '><img src='img/feedbackRight.png'></img> </div> "," ","","","","","","","","","",""
"","","","","","visual-search-circle","7","102173","0.0-7.0-0.0","5fbb42988a2ddbc42227e890","619531dcf66c91622fa1b861","619595b5fe19df9936f739a0","3969","","s","true","[[0,279],[279,599],[599,320],[320,0]]","false","4","training","s","","","",""
"","","","","","html-keyboard-response","8","103569","0.0-8.0","5fbb42988a2ddbc42227e890","619531dcf66c91622fa1b861","619595b5fe19df9936f739a0","1396"," <div style='float: center; '><img src='img/feedbackRight.png'></img> </div> "," ","","","","","","","","","",""
"","","","","","visual-search-circle","9","109065","0.0-9.0-0.0","5fbb42988a2ddbc42227e890","619531dcf66c91622fa1b861","619595b5fe19df9936f739a0","4490","","s","true","[[294,599],[557,454],[562,154],[305,0],[42,145],[37,445]]","false","6","training","s","","","",""
"","","","","","html-keyboard-response","10","109836","0.0-10.0","5fbb42988a2ddbc42227e890","619531dcf66c91622fa1b861","619595b5fe19df9936f739a0","771"," <div style='float: center; '><img src='img/feedbackRight.png'></img> </div> "," ","","","","","","","","","",""
"","","","","","visual-search-circle","11","120236","0.0-11.0-0.0","5fbb42988a2ddbc42227e890","619531dcf66c91622fa1b861","619595b5fe19df9936f739a0","9394","","d","true","[[1,268],[66,488],[268,598],[488,533],[598,331],[533,111],[331,1],[111,66]]","true","8","training","d","","","",""
"","","","","","html-keyboard-response","12","122294","0.0-12.0","5fbb42988a2ddbc42227e890","619531dcf66c91622fa1b861","619595b5fe19df9936f739a0","2057"," <div style='float: center; '><img src='img/feedbackRight.png'></img> </div> "," ","","","","","","","","","",""
"","","","","","video-keyboard-response","13","130491","0.0-13.0","5fbb42988a2ddbc42227e890","619531dcf66c91622fa1b861","619595b5fe19df9936f739a0","8193","[""video/endTraining.mp4""]"," ","","","","","","","","","",""
"","","","","","html-keyboard-response","14","130492","0.0-14.0-0.0-0.0","5fbb42988a2ddbc42227e890","619531dcf66c91622fa1b861","619595b5fe19df9936f739a0","null","","null","","","","","main_T1_ITI","","","","",""
"","","","","","visual-search-circle","15","135129","0.0-14.0-0.0-1.0","5fbb42988a2ddbc42227e890","619531dcf66c91622fa1b861","619595b5fe19df9936f739a0","3622","","s","false","[[1,326],[232,592],[557,454],[526,103],[182,23]]","true","5","main_T2_Trial","d","img/Fire_Up_Target.gif","[""img/Fire_Down_Distractor.gif"",""img/Fire_Down_Distractor.gif"",""img/Fire_Down_Distractor.gif"",""img/Fire_Down_Distractor.gif"",""img/Fire_Down_Distractor.gif"",""img/Fire_Down_Distractor.gif"",""img/Fire_Down_Distractor.gif"",""img/Fire_Down_Distractor.gif"",""img/Fire_Down_Distractor.gif"",""img/Fire_Down_Distractor.gif"",""img/Fire_Down_Distractor.gif"",""img/Fire_Down_Distractor.gif""]","5","targetUp_distractorsDown"
"","","","","","html-keyboard-response","16","135129","0.0-14.0-0.0-0.1","5fbb42988a2ddbc42227e890","619531dcf66c91622fa1b861","619595b5fe19df9936f739a0","null","","null","","","","","main_T1_ITI","","","","",""
"","","","","","visual-search-circle","17","139987","0.0-14.0-0.0-1.1","5fbb42988a2ddbc42227e890","619531dcf66c91622fa1b861","619595b5fe19df9936f739a0","3843","","s","true","[[48,463],[377,589],[599,315],[407,19],[66,111]]","false","5","main_T2_Trial","s","img/Fire_Up_Target.gif","[""img/Fire_Down_Distractor.gif"",""img/Fire_Down_Distractor.gif"",""img/Fire_Down_Distractor.gif"",""img/Fire_Down_Distractor.gif"",""img/Fire_Down_Distractor.gif"",""img/Fire_Down_Distractor.gif"",""img/Fire_Down_Distractor.gif"",""img/Fire_Down_Distractor.gif"",""img/Fire_Down_Distractor.gif"",""img/Fire_Down_Distractor.gif"",""img/Fire_Down_Distractor.gif"",""img/Fire_Down_Distractor.gif""]","5","targetUp_distractorsDown"
"","","","","","html-keyboard-response","18","139988","0.0-14.0-0.0-0.2","5fbb42988a2ddbc42227e890","619531dcf66c91622fa1b861","619595b5fe19df9936f739a0","null","","null","","","","","main_T1_ITI","","","","",""
"","","","","","visual-search-circle","19","142493","0.0-14.0-0.0-1.2","5fbb42988a2ddbc42227e890","619531dcf66c91622fa1b861","619595b5fe19df9936f739a0","1502","","d","true","[[279,599],[599,320],[320,0],[0,279]]","true","4","main_T2_Trial","d","img/Fire_Up_Target.gif","[""img/Fire_Down_Distractor.gif"",""img/Fire_Down_Distractor.gif"",""img/Fire_Down_Distractor.gif"",""img/Fire_Down_Distractor.gif"",""img/Fire_Down_Distractor.gif"",""img/Fire_Down_Distractor.gif"",""img/Fire_Down_Distractor.gif"",""img/Fire_Down_Distractor.gif"",""img/Fire_Down_Distractor.gif"",""img/Fire_Down_Distractor.gif"",""img/Fire_Down_Distractor.gif"",""img/Fire_Down_Distractor.gif""]","4","targetUp_distractorsDown"
"","","","","","html-keyboard-response","20","142494","0.0-14.0-0.0-0.3","5fbb42988a2ddbc42227e890","619531dcf66c91622fa1b861","619595b5fe19df9936f739a0","null","","null","","","","","main_T1_ITI","","","","",""
"","","","","","visual-search-circle","21","144587","0.0-14.0-0.0-1.3","5fbb42988a2ddbc42227e890","619531dcf66c91622fa1b861","619595b5fe19df9936f739a0","1078","","d","true","[[422,574],[598,268],[362,6],[40,150],[77,500]]","true","5","main_T2_Trial","d","img/Fire_Down_Target.gif","[""img/Fire_Up_Distractor.gif"",""img/Fire_Up_Distractor.gif"",""img/Fire_Up_Distractor.gif"",""img/Fire_Up_Distractor.gif"",""img/Fire_Up_Distractor.gif"",""img/Fire_Up_Distractor.gif"",""img/Fire_Up_Distractor.gif"",""img/Fire_Up_Distractor.gif"",""img/Fire_Up_Distractor.gif"",""img/Fire_Up_Distractor.gif"",""img/Fire_Up_Distractor.gif"",""img/Fire_Up_Distractor.gif""]","5","targetDown_distractorsUp"
"","","","","","html-keyboard-response","22","144587","0.0-14.0-0.0-0.4","5fbb42988a2ddbc42227e890","619531dcf66c91622fa1b861","619595b5fe19df9936f739a0","null","","null","","","","","main_T1_ITI","","","","",""
"","","","","","visual-search-circle","23","151470","0.0-14.0-0.0-1.4","5fbb42988a2ddbc42227e890","619531dcf66c91622fa1b861","619595b5fe19df9936f739a0","5871","","d","true","[[103,73],[73,496],[496,526],[526,103]]","true","4","main_T2_Trial","d","img/Fire_Up_Target.gif","[""img/Fire_Down_Distractor.gif"",""img/Fire_Down_Distractor.gif"",""img/Fire_Down_Distractor.gif"",""img/Fire_Down_Distractor.gif"",""img/Fire_Down_Distractor.gif"",""img/Fire_Down_Distractor.gif"",""img/Fire_Down_Distractor.gif"",""img/Fire_Down_Distractor.gif"",""img/Fire_Down_Distractor.gif"",""img/Fire_Down_Distractor.gif"",""img/Fire_Down_Distractor.gif"",""img/Fire_Down_Distractor.gif""]","4","targetUp_distractorsDown"
"","","","","","html-keyboard-response","24","151470","0.0-14.0-0.0-0.5","5fbb42988a2ddbc42227e890","619531dcf66c91622fa1b861","619595b5fe19df9936f739a0","null","","null","","","","","main_T1_ITI","","","","",""
"","","","","","visual-search-circle","25","153921","0.0-14.0-0.0-1.5","5fbb42988a2ddbc42227e890","619531dcf66c91622fa1b861","619595b5fe19df9936f739a0","1447","","s","false","[[585,207],[300,0],[14,207],[123,542],[476,542]]","true","5","main_T2_Trial","d","img/Fire_Down_Target.gif","[""img/Fire_Up_Distractor.gif"",""img/Fire_Up_Distractor.gif"",""img/Fire_Up_Distractor.gif"",""img/Fire_Up_Distractor.gif"",""img/Fire_Up_Distractor.gif"",""img/Fire_Up_Distractor.gif"",""img/Fire_Up_Distractor.gif"",""img/Fire_Up_Distractor.gif"",""img/Fire_Up_Distractor.gif"",""img/Fire_Up_Distractor.gif"",""img/Fire_Up_Distractor.gif"",""img/Fire_Up_Distractor.gif""]","5","targetDown_distractorsUp"
"","","","","","html-keyboard-response","26","153921","0.0-14.0-0.0-0.6","5fbb42988a2ddbc42227e890","619531dcf66c91622fa1b861","619595b5fe19df9936f739a0","null","","null","","","","","main_T1_ITI","","","","",""
"","","","","","visual-search-circle","27","157747","0.0-14.0-0.0-1.6","5fbb42988a2ddbc42227e890","619531dcf66c91622fa1b861","619595b5fe19df9936f739a0","2811","","d","true","[[87,512],[333,598],[554,459],[583,200],[399,16],[140,45],[1,266]]","true","7","main_T2_Trial","d","img/Fire_Down_Target.gif","[""img/Fire_Up_Distractor.gif"",""img/Fire_Up_Distractor.gif"",""img/Fire_Up_Distractor.gif"",""img/Fire_Up_Distractor.gif"",""img/Fire_Up_Distractor.gif"",""img/Fire_Up_Distractor.gif"",""img/Fire_Up_Distractor.gif"",""img/Fire_Up_Distractor.gif"",""img/Fire_Up_Distractor.gif"",""img/Fire_Up_Distractor.gif"",""img/Fire_Up_Distractor.gif"",""img/Fire_Up_Distractor.gif""]","7","targetDown_distractorsUp"
"","","","","","html-keyboard-response","28","157748","0.0-14.0-0.0-0.7","5fbb42988a2ddbc42227e890","619531dcf66c91622fa1b861","619595b5fe19df9936f739a0","null","","null","","","","","main_T1_ITI","","","","",""
"","","","","","visual-search-circle","29","163408","0.0-14.0-0.0-1.7","5fbb42988a2ddbc42227e890","619531dcf66c91622fa1b861","619595b5fe19df9936f739a0","4651","","s","false","[[19,192],[25,422],[192,580],[422,574],[580,407],[574,177],[407,19],[177,25]]","true","8","main_T2_Trial","d","img/Fire_Down_Target.gif","[""img/Fire_Up_Distractor.gif"",""img/Fire_Up_Distractor.gif"",""img/Fire_Up_Distractor.gif"",""img/Fire_Up_Distractor.gif"",""img/Fire_Up_Distractor.gif"",""img/Fire_Up_Distractor.gif"",""img/Fire_Up_Distractor.gif"",""img/Fire_Up_Distractor.gif"",""img/Fire_Up_Distractor.gif"",""img/Fire_Up_Distractor.gif"",""img/Fire_Up_Distractor.gif"",""img/Fire_Up_Distractor.gif""]","8","targetDown_distractorsUp"
"","","","","","html-keyboard-response","30","163408","0.0-14.0-0.0-0.8","5fbb42988a2ddbc42227e890","619531dcf66c91622fa1b861","619595b5fe19df9936f739a0","null","","null","","","","","main_T1_ITI","","","","",""
"","","","","","visual-search-circle","31","166015","0.0-14.0-0.0-1.8","5fbb42988a2ddbc42227e890","619531dcf66c91622fa1b861","619595b5fe19df9936f739a0","1600","","s","true","[[6,237],[99,522],[392,585],[593,362],[500,77],[207,14]]","false","6","main_T2_Trial","s","img/Fire_Down_Target.gif","[""img/Fire_Up_Distractor.gif"",""img/Fire_Up_Distractor.gif"",""img/Fire_Up_Distractor.gif"",""img/Fire_Up_Distractor.gif"",""img/Fire_Up_Distractor.gif"",""img/Fire_Up_Distractor.gif"",""img/Fire_Up_Distractor.gif"",""img/Fire_Up_Distractor.gif"",""img/Fire_Up_Distractor.gif"",""img/Fire_Up_Distractor.gif"",""img/Fire_Up_Distractor.gif"",""img/Fire_Up_Distractor.gif""]","6","targetDown_distractorsUp"
"","","","","","html-keyboard-response","32","166015","0.0-14.0-0.0-0.9","5fbb42988a2ddbc42227e890","619531dcf66c91622fa1b861","619595b5fe19df9936f739a0","null","","null","","","","","main_T1_ITI","","","","",""
"","","","","","visual-search-circle","33","167958","0.0-14.0-0.0-1.9","5fbb42988a2ddbc42227e890","619531dcf66c91622fa1b861","619595b5fe19df9936f739a0","934","","s","true","[[115,63],[2,341],[187,578],[484,536],[597,258],[412,21]]","false","6","main_T2_Trial","s","img/Fire_Up_Target.gif","[""img/Fire_Down_Distractor.gif"",""img/Fire_Down_Distractor.gif"",""img/Fire_Down_Distractor.gif"",""img/Fire_Down_Distractor.gif"",""img/Fire_Down_Distractor.gif"",""img/Fire_Down_Distractor.gif"",""img/Fire_Down_Distractor.gif"",""img/Fire_Down_Distractor.gif"",""img/Fire_Down_Distractor.gif"",""img/Fire_Down_Distractor.gif"",""img/Fire_Down_Distractor.gif"",""img/Fire_Down_Distractor.gif""]","6","targetUp_distractorsDown"
"","","","","","html-keyboard-response","34","167958","0.0-14.0-0.0-0.10","5fbb42988a2ddbc42227e890","619531dcf66c91622fa1b861","619595b5fe19df9936f739a0","null","","null","","","","","main_T1_ITI","","","","",""
"","","","","","visual-search-circle","35","170196","0.0-14.0-0.0-1.10","5fbb42988a2ddbc42227e890","619531dcf66c91622fa1b861","619595b5fe19df9936f739a0","1232","","d","true","[[585,207],[405,19],[146,42],[2,259],[83,507],[326,598],[550,465]]","true","7","main_T2_Trial","d","img/Fire_Down_Target.gif","[""img/Fire_Up_Distractor.gif"",""img/Fire_Up_Distractor.gif"",""img/Fire_Up_Distractor.gif"",""img/Fire_Up_Distractor.gif"",""img/Fire_Up_Distractor.gif"",""img/Fire_Up_Distractor.gif"",""img/Fire_Up_Distractor.gif"",""img/Fire_Up_Distractor.gif"",""img/Fire_Up_Distractor.gif"",""img/Fire_Up_Distractor.gif"",""img/Fire_Up_Distractor.gif"",""img/Fire_Up_Distractor.gif""]","7","targetDown_distractorsUp"
"","","","","","html-keyboard-response","36","170196","0.0-14.0-0.0-0.11","5fbb42988a2ddbc42227e890","619531dcf66c91622fa1b861","619595b5fe19df9936f739a0","null","","null","","","","","main_T1_ITI","","","","",""
"","","","","","visual-search-circle","37","172928","0.0-14.0-0.0-1.11","5fbb42988a2ddbc42227e890","619531dcf66c91622fa1b861","619595b5fe19df9936f739a0","1731","","s","true","[[149,559],[559,450],[449,40],[40,150]]","false","4","main_T2_Trial","s","img/Fire_Down_Target.gif","[""img/Fire_Up_Distractor.gif"",""img/Fire_Up_Distractor.gif"",""img/Fire_Up_Distractor.gif"",""img/Fire_Up_Distractor.gif"",""img/Fire_Up_Distractor.gif"",""img/Fire_Up_Distractor.gif"",""img/Fire_Up_Distractor.gif"",""img/Fire_Up_Distractor.gif"",""img/Fire_Up_Distractor.gif"",""img/Fire_Up_Distractor.gif"",""img/Fire_Up_Distractor.gif"",""img/Fire_Up_Distractor.gif""]","4","targetDown_distractorsUp"
"","","","","","html-keyboard-response","38","172928","0.0-14.0-0.0-0.12","5fbb42988a2ddbc42227e890","619531dcf66c91622fa1b861","619595b5fe19df9936f739a0","null","","null","","","","","main_T1_ITI","","","","",""
"","","","","","visual-search-circle","39","175351","0.0-14.0-0.0-1.12","5fbb42988a2ddbc42227e890","619531dcf66c91622fa1b861","619595b5fe19df9936f739a0","1411","","s","true","[[212,13],[35,159],[13,387],[159,564],[387,586],[564,440],[586,212],[440,35]]","false","8","main_T2_Trial","s","img/Fire_Up_Target.gif","[""img/Fire_Down_Distractor.gif"",""img/Fire_Down_Distractor.gif"",""img/Fire_Down_Distractor.gif"",""img/Fire_Down_Distractor.gif"",""img/Fire_Down_Distractor.gif"",""img/Fire_Down_Distractor.gif"",""img/Fire_Down_Distractor.gif"",""img/Fire_Down_Distractor.gif"",""img/Fire_Down_Distractor.gif"",""img/Fire_Down_Distractor.gif"",""img/Fire_Down_Distractor.gif"",""img/Fire_Down_Distractor.gif""]","8","targetUp_distractorsDown"
"","","","","","html-keyboard-response","40","175351","0.0-14.0-0.0-0.13","5fbb42988a2ddbc42227e890","619531dcf66c91622fa1b861","619595b5fe19df9936f739a0","null","","null","","","","","main_T1_ITI","","","","",""
"","","","","","visual-search-circle","41","180015","0.0-14.0-0.0-1.13","5fbb42988a2ddbc42227e890","619531dcf66c91622fa1b861","619595b5fe19df9936f739a0","3651","","d","true","[[571,173],[263,2],[5,242],[154,562],[504,519]]","true","5","main_T2_Trial","d","img/Fire_Up_Target.gif","[""img/Fire_Down_Distractor.gif"",""img/Fire_Down_Distractor.gif"",""img/Fire_Down_Distractor.gif"",""img/Fire_Down_Distractor.gif"",""img/Fire_Down_Distractor.gif"",""img/Fire_Down_Distractor.gif"",""img/Fire_Down_Distractor.gif"",""img/Fire_Down_Distractor.gif"",""img/Fire_Down_Distractor.gif"",""img/Fire_Down_Distractor.gif"",""img/Fire_Down_Distractor.gif"",""img/Fire_Down_Distractor.gif""]","5","targetUp_distractorsDown"
"","","","","","html-keyboard-response","42","180015","0.0-14.0-0.0-0.14","5fbb42988a2ddbc42227e890","619531dcf66c91622fa1b861","619595b5fe19df9936f739a0","null","","null","","","","","main_T1_ITI","","","","",""
"","","","","","visual-search-circle","43","182323","0.0-14.0-0.0-1.14","5fbb42988a2ddbc42227e890","619531dcf66c91622fa1b861","619595b5fe19df9936f739a0","1305","","s","true","[[80,504],[323,599],[548,468],[586,210],[408,20],[149,40],[3,256]]","false","7","main_T2_Trial","s","img/Fire_Down_Target.gif","[""img/Fire_Up_Distractor.gif"",""img/Fire_Up_Distractor.gif"",""img/Fire_Up_Distractor.gif"",""img/Fire_Up_Distractor.gif"",""img/Fire_Up_Distractor.gif"",""img/Fire_Up_Distractor.gif"",""img/Fire_Up_Distractor.gif"",""img/Fire_Up_Distractor.gif"",""img/Fire_Up_Distractor.gif"",""img/Fire_Up_Distractor.gif"",""img/Fire_Up_Distractor.gif"",""img/Fire_Up_Distractor.gif""]","7","targetDown_distractorsUp"
"","","","","","html-keyboard-response","44","182324","0.0-14.0-0.0-0.15","5fbb42988a2ddbc42227e890","619531dcf66c91622fa1b861","619595b5fe19df9936f739a0","null","","null","","","","","main_T1_ITI","","","","",""
"","","","","","visual-search-circle","45","184448","0.0-14.0-0.0-1.15","5fbb42988a2ddbc42227e890","619531dcf66c91622fa1b861","619595b5fe19df9936f739a0","1111","","d","true","[[159,564],[419,575],[589,378],[541,122],[311,0],[73,103],[5,355]]","true","7","main_T2_Trial","d","img/Fire_Up_Target.gif","[""img/Fire_Down_Distractor.gif"",""img/Fire_Down_Distractor.gif"",""img/Fire_Down_Distractor.gif"",""img/Fire_Down_Distractor.gif"",""img/Fire_Down_Distractor.gif"",""img/Fire_Down_Distractor.gif"",""img/Fire_Down_Distractor.gif"",""img/Fire_Down_Distractor.gif"",""img/Fire_Down_Distractor.gif"",""img/Fire_Down_Distractor.gif"",""img/Fire_Down_Distractor.gif"",""img/Fire_Down_Distractor.gif""]","7","targetUp_distractorsDown"
"","","","","","html-keyboard-response","46","184448","0.0-14.0-0.0-0.16","5fbb42988a2ddbc42227e890","619531dcf66c91622fa1b861","619595b5fe19df9936f739a0","null","","null","","","","","main_T1_ITI","","","","",""
"","","","","","visual-search-circle","47","186341","0.0-14.0-0.0-1.16","5fbb42988a2ddbc42227e890","619531dcf66c91622fa1b861","619595b5fe19df9936f739a0","887","","s","true","[[569,168],[397,16],[168,30],[16,202],[30,431],[202,583],[431,569],[583,397]]","false","8","main_T2_Trial","s","img/Fire_Down_Target.gif","[""img/Fire_Up_Distractor.gif"",""img/Fire_Up_Distractor.gif"",""img/Fire_Up_Distractor.gif"",""img/Fire_Up_Distractor.gif"",""img/Fire_Up_Distractor.gif"",""img/Fire_Up_Distractor.gif"",""img/Fire_Up_Distractor.gif"",""img/Fire_Up_Distractor.gif"",""img/Fire_Up_Distractor.gif"",""img/Fire_Up_Distractor.gif"",""img/Fire_Up_Distractor.gif"",""img/Fire_Up_Distractor.gif""]","8","targetDown_distractorsUp"
"","","","","","html-keyboard-response","48","186341","0.0-14.0-0.0-0.17","5fbb42988a2ddbc42227e890","619531dcf66c91622fa1b861","619595b5fe19df9936f739a0","null","","null","","","","","main_T1_ITI","","","","",""
"","","","","","visual-search-circle","49","188205","0.0-14.0-0.0-1.17","5fbb42988a2ddbc42227e890","619531dcf66c91622fa1b861","619595b5fe19df9936f739a0","860","","d","true","[[436,32],[175,26],[9,226],[61,481],[293,599],[530,492],[593,239]]","true","7","main_T2_Trial","d","img/Fire_Down_Target.gif","[""img/Fire_Up_Distractor.gif"",""img/Fire_Up_Distractor.gif"",""img/Fire_Up_Distractor.gif"",""img/Fire_Up_Distractor.gif"",""img/Fire_Up_Distractor.gif"",""img/Fire_Up_Distractor.gif"",""img/Fire_Up_Distractor.gif"",""img/Fire_Up_Distractor.gif"",""img/Fire_Up_Distractor.gif"",""img/Fire_Up_Distractor.gif"",""img/Fire_Up_Distractor.gif"",""img/Fire_Up_Distractor.gif""]","7","targetDown_distractorsUp"
"","","","","","html-keyboard-response","50","188205","0.0-14.0-0.0-0.18","5fbb42988a2ddbc42227e890","619531dcf66c91622fa1b861","619595b5fe19df9936f739a0","null","","null","","","","","main_T1_ITI","","","","",""
"","","","","","visual-search-circle","51","190516","0.0-14.0-0.0-1.18","5fbb42988a2ddbc42227e890","619531dcf66c91622fa1b861","619595b5fe19df9936f739a0","1306","","s","true","[[70,107],[45,458],[372,591],[599,320],[412,21]]","false","5","main_T2_Trial","s","img/Fire_Down_Target.gif","[""img/Fire_Up_Distractor.gif"",""img/Fire_Up_Distractor.gif"",""img/Fire_Up_Distractor.gif"",""img/Fire_Up_Distractor.gif"",""img/Fire_Up_Distractor.gif"",""img/Fire_Up_Distractor.gif"",""img/Fire_Up_Distractor.gif"",""img/Fire_Up_Distractor.gif"",""img/Fire_Up_Distractor.gif"",""img/Fire_Up_Distractor.gif"",""img/Fire_Up_Distractor.gif"",""img/Fire_Up_Distractor.gif""]","5","targetDown_distractorsUp"
"","","","","","html-keyboard-response","52","194933","0.0-14.0-0.0-0.19","5fbb42988a2ddbc42227e890","619531dcf66c91622fa1b861","619595b5fe19df9936f739a0","4416","Wow! You've completed 20 out of 160 trials! </p> <p>  </p><p> Take a quick break, then press any key when you're ready to continue."," ","","","","","main_T1_ITI","","","","",""
"","","","","","visual-search-circle","53","196888","0.0-14.0-0.0-1.19","5fbb42988a2ddbc42227e890","619531dcf66c91622fa1b861","619595b5fe19df9936f739a0","942","","d","true","[[480,539],[597,341],[539,119],[341,2],[119,60],[2,258],[60,480],[258,597]]","true","8","main_T2_Trial","d","img/Fire_Down_Target.gif","[""img/Fire_Up_Distractor.gif"",""img/Fire_Up_Distractor.gif"",""img/Fire_Up_Distractor.gif"",""img/Fire_Up_Distractor.gif"",""img/Fire_Up_Distractor.gif"",""img/Fire_Up_Distractor.gif"",""img/Fire_Up_Distractor.gif"",""img/Fire_Up_Distractor.gif"",""img/Fire_Up_Distractor.gif"",""img/Fire_Up_Distractor.gif"",""img/Fire_Up_Distractor.gif"",""img/Fire_Up_Distractor.gif""]","8","targetDown_distractorsUp"
"","","","","","html-keyboard-response","54","196888","0.0-14.0-0.0-0.20","5fbb42988a2ddbc42227e890","619531dcf66c91622fa1b861","619595b5fe19df9936f739a0","null","","null","","","","","main_T1_ITI","","","","",""
"","","","","","visual-search-circle","55","198872","0.0-14.0-0.0-1.20","5fbb42988a2ddbc42227e890","619531dcf66c91622fa1b861","619595b5fe19df9936f739a0","981","","d","true","[[227,591],[482,538],[599,305],[491,69],[239,6],[32,164],[27,424]]","true","7","main_T2_Trial","d","img/Fire_Up_Target.gif","[""img/Fire_Down_Distractor.gif"",""img/Fire_Down_Distractor.gif"",""img/Fire_Down_Distractor.gif"",""img/Fire_Down_Distractor.gif"",""img/Fire_Down_Distractor.gif"",""img/Fire_Down_Distractor.gif"",""img/Fire_Down_Distractor.gif"",""img/Fire_Down_Distractor.gif"",""img/Fire_Down_Distractor.gif"",""img/Fire_Down_Distractor.gif"",""img/Fire_Down_Distractor.gif"",""img/Fire_Down_Distractor.gif""]","7","targetUp_distractorsDown"
"","","","","","html-keyboard-response","56","198872","0.0-14.0-0.0-0.21","5fbb42988a2ddbc42227e890","619531dcf66c91622fa1b861","619595b5fe19df9936f739a0","null","","null","","","","","main_T1_ITI","","","","",""
"","","","","","visual-search-circle","57","200776","0.0-14.0-0.0-1.21","5fbb42988a2ddbc42227e890","619531dcf66c91622fa1b861","619595b5fe19df9936f739a0","892","","d","true","[[539,119],[263,2],[23,182],[60,480],[336,597],[576,417]]","true","6","main_T2_Trial","d","img/Fire_Down_Target.gif","[""img/Fire_Up_Distractor.gif"",""img/Fire_Up_Distractor.gif"",""img/Fire_Up_Distractor.gif"",""img/Fire_Up_Distractor.gif"",""img/Fire_Up_Distractor.gif"",""img/Fire_Up_Distractor.gif"",""img/Fire_Up_Distractor.gif"",""img/Fire_Up_Distractor.gif"",""img/Fire_Up_Distractor.gif"",""img/Fire_Up_Distractor.gif"",""img/Fire_Up_Distractor.gif"",""img/Fire_Up_Distractor.gif""]","6","targetDown_distractorsUp"
"","","","","","html-keyboard-response","58","200776","0.0-14.0-0.0-0.22","5fbb42988a2ddbc42227e890","619531dcf66c91622fa1b861","619595b5fe19df9936f739a0","null","","null","","","","","main_T1_ITI","","","","",""
"","","","","","visual-search-circle","59","202639","0.0-14.0-0.0-1.22","5fbb42988a2ddbc42227e890","619531dcf66c91622fa1b861","619595b5fe19df9936f739a0","851","","d","true","[[519,504],[562,154],[242,5],[2,263],[173,571]]","true","5","main_T2_Trial","d","img/Fire_Up_Target.gif","[""img/Fire_Down_Distractor.gif"",""img/Fire_Down_Distractor.gif"",""img/Fire_Down_Distractor.gif"",""img/Fire_Down_Distractor.gif"",""img/Fire_Down_Distractor.gif"",""img/Fire_Down_Distractor.gif"",""img/Fire_Down_Distractor.gif"",""img/Fire_Down_Distractor.gif"",""img/Fire_Down_Distractor.gif"",""img/Fire_Down_Distractor.gif"",""img/Fire_Down_Distractor.gif"",""img/Fire_Down_Distractor.gif""]","5","targetUp_distractorsDown"
"","","","","","html-keyboard-response","60","202639","0.0-14.0-0.0-0.23","5fbb42988a2ddbc42227e890","619531dcf66c91622fa1b861","619595b5fe19df9936f739a0","null","","null","","","","","main_T1_ITI","","","","",""
"","","","","","visual-search-circle","61","204593","0.0-14.0-0.0-1.23","5fbb42988a2ddbc42227e890","619531dcf66c91622fa1b861","619595b5fe19df9936f739a0","941","","d","true","[[132,51],[5,242],[51,467],[242,594],[467,548],[594,357],[548,132],[357,5]]","true","8","main_T2_Trial","d","img/Fire_Down_Target.gif","[""img/Fire_Up_Distractor.gif"",""img/Fire_Up_Distractor.gif"",""img/Fire_Up_Distractor.gif"",""img/Fire_Up_Distractor.gif"",""img/Fire_Up_Distractor.gif"",""img/Fire_Up_Distractor.gif"",""img/Fire_Up_Distractor.gif"",""img/Fire_Up_Distractor.gif"",""img/Fire_Up_Distractor.gif"",""img/Fire_Up_Distractor.gif"",""img/Fire_Up_Distractor.gif"",""img/Fire_Up_Distractor.gif""]","8","targetDown_distractorsUp"
"","","","","","html-keyboard-response","62","204593","0.0-14.0-0.0-0.24","5fbb42988a2ddbc42227e890","619531dcf66c91622fa1b861","619595b5fe19df9936f739a0","null","","null","","","","","main_T1_ITI","","","","",""
"","","","","","visual-search-circle","63","208508","0.0-14.0-0.0-1.24","5fbb42988a2ddbc42227e890","619531dcf66c91622fa1b861","619595b5fe19df9936f739a0","2909","","d","true","[[1,331],[138,552],[396,583],[582,401],[555,142],[335,2],[89,86]]","true","7","main_T2_Trial","d","img/Fire_Down_Target.gif","[""img/Fire_Up_Distractor.gif"",""img/Fire_Up_Distractor.gif"",""img/Fire_Up_Distractor.gif"",""img/Fire_Up_Distractor.gif"",""img/Fire_Up_Distractor.gif"",""img/Fire_Up_Distractor.gif"",""img/Fire_Up_Distractor.gif"",""img/Fire_Up_Distractor.gif"",""img/Fire_Up_Distractor.gif"",""img/Fire_Up_Distractor.gif"",""img/Fire_Up_Distractor.gif"",""img/Fire_Up_Distractor.gif""]","7","targetDown_distractorsUp"
"","","","","","html-keyboard-response","64","208508","0.0-14.0-0.0-0.25","5fbb42988a2ddbc42227e890","619531dcf66c91622fa1b861","619595b5fe19df9936f739a0","null","","null","","","","","main_T1_ITI","","","","",""
"","","","","","visual-search-circle","65","210653","0.0-14.0-0.0-1.25","5fbb42988a2ddbc42227e890","619531dcf66c91622fa1b861","619595b5fe19df9936f739a0","1132","","s","false","[[463,48],[111,66],[19,407],[315,599],[589,377]]","true","5","main_T2_Trial","d","img/Fire_Up_Target.gif","[""img/Fire_Down_Distractor.gif"",""img/Fire_Down_Distractor.gif"",""img/Fire_Down_Distractor.gif"",""img/Fire_Down_Distractor.gif"",""img/Fire_Down_Distractor.gif"",""img/Fire_Down_Distractor.gif"",""img/Fire_Down_Distractor.gif"",""img/Fire_Down_Distractor.gif"",""img/Fire_Down_Distractor.gif"",""img/Fire_Down_Distractor.gif"",""img/Fire_Down_Distractor.gif"",""img/Fire_Down_Distractor.gif""]","5","targetUp_distractorsDown"
"","","","","","html-keyboard-response","66","210653","0.0-14.0-0.0-0.26","5fbb42988a2ddbc42227e890","619531dcf66c91622fa1b861","619595b5fe19df9936f739a0","null","","null","","","","","main_T1_ITI","","","","",""
"","","","","","visual-search-circle","67","216510","0.0-14.0-0.0-1.26","5fbb42988a2ddbc42227e890","619531dcf66c91622fa1b861","619595b5fe19df9936f739a0","4850","","d","true","[[597,258],[258,2],[2,341],[341,597]]","true","4","main_T2_Trial","d","img/Fire_Up_Target.gif","[""img/Fire_Down_Distractor.gif"",""img/Fire_Down_Distractor.gif"",""img/Fire_Down_Distractor.gif"",""img/Fire_Down_Distractor.gif"",""img/Fire_Down_Distractor.gif"",""img/Fire_Down_Distractor.gif"",""img/Fire_Down_Distractor.gif"",""img/Fire_Down_Distractor.gif"",""img/Fire_Down_Distractor.gif"",""img/Fire_Down_Distractor.gif"",""img/Fire_Down_Distractor.gif"",""img/Fire_Down_Distractor.gif""]","4","targetUp_distractorsDown"
"","","","","","html-keyboard-response","68","216510","0.0-14.0-0.0-0.27","5fbb42988a2ddbc42227e890","619531dcf66c91622fa1b861","619595b5fe19df9936f739a0","null","","null","","","","","main_T1_ITI","","","","",""
"","","","","","visual-search-circle","69","219766","0.0-14.0-0.0-1.27","5fbb42988a2ddbc42227e890","619531dcf66c91622fa1b861","619595b5fe19df9936f739a0","2251","","d","true","[[0,310],[159,564],[458,554],[599,289],[440,35],[141,45]]","true","6","main_T2_Trial","d","img/Fire_Up_Target.gif","[""img/Fire_Down_Distractor.gif"",""img/Fire_Down_Distractor.gif"",""img/Fire_Down_Distractor.gif"",""img/Fire_Down_Distractor.gif"",""img/Fire_Down_Distractor.gif"",""img/Fire_Down_Distractor.gif"",""img/Fire_Down_Distractor.gif"",""img/Fire_Down_Distractor.gif"",""img/Fire_Down_Distractor.gif"",""img/Fire_Down_Distractor.gif"",""img/Fire_Down_Distractor.gif"",""img/Fire_Down_Distractor.gif""]","6","targetUp_distractorsDown"
"","","","","","html-keyboard-response","70","219766","0.0-14.0-0.0-0.28","5fbb42988a2ddbc42227e890","619531dcf66c91622fa1b861","619595b5fe19df9936f739a0","null","","null","","","","","main_T1_ITI","","","","",""
"","","","","","visual-search-circle","71","221844","0.0-14.0-0.0-1.28","5fbb42988a2ddbc42227e890","619531dcf66c91622fa1b861","619595b5fe19df9936f739a0","1072","","s","true","[[599,305],[305,0],[0,294],[294,599]]","false","4","main_T2_Trial","s","img/Fire_Up_Target.gif","[""img/Fire_Down_Distractor.gif"",""img/Fire_Down_Distractor.gif"",""img/Fire_Down_Distractor.gif"",""img/Fire_Down_Distractor.gif"",""img/Fire_Down_Distractor.gif"",""img/Fire_Down_Distractor.gif"",""img/Fire_Down_Distractor.gif"",""img/Fire_Down_Distractor.gif"",""img/Fire_Down_Distractor.gif"",""img/Fire_Down_Distractor.gif"",""img/Fire_Down_Distractor.gif"",""img/Fire_Down_Distractor.gif""]","4","targetUp_distractorsDown"
"","","","","","html-keyboard-response","72","221844","0.0-14.0-0.0-0.29","5fbb42988a2ddbc42227e890","619531dcf66c91622fa1b861","619595b5fe19df9936f739a0","null","","null","","","","","main_T1_ITI","","","","",""
"","","","","","visual-search-circle","73","229934","0.0-14.0-0.0-1.29","5fbb42988a2ddbc42227e890","619531dcf66c91622fa1b861","619595b5fe19df9936f739a0","7089","","d","true","[[305,599],[599,294],[294,0],[0,305]]","true","4","main_T2_Trial","d","img/Fire_Up_Target.gif","[""img/Fire_Down_Distractor.gif"",""img/Fire_Down_Distractor.gif"",""img/Fire_Down_Distractor.gif"",""img/Fire_Down_Distractor.gif"",""img/Fire_Down_Distractor.gif"",""img/Fire_Down_Distractor.gif"",""img/Fire_Down_Distractor.gif"",""img/Fire_Down_Distractor.gif"",""img/Fire_Down_Distractor.gif"",""img/Fire_Down_Distractor.gif"",""img/Fire_Down_Distractor.gif"",""img/Fire_Down_Distractor.gif""]","4","targetUp_distractorsDown"
"","","","","","html-keyboard-response","74","229934","0.0-14.0-0.0-0.30","5fbb42988a2ddbc42227e890","619531dcf66c91622fa1b861","619595b5fe19df9936f739a0","null","","null","","","","","main_T1_ITI","","","","",""
"","","","","","visual-search-circle","75","232209","0.0-14.0-0.0-1.30","5fbb42988a2ddbc42227e890","619531dcf66c91622fa1b861","619595b5fe19df9936f739a0","1260","","s","true","[[592,232],[429,29],[169,30],[7,233],[65,487],[300,599],[535,486]]","false","7","main_T2_Trial","s","img/Fire_Up_Target.gif","[""img/Fire_Down_Distractor.gif"",""img/Fire_Down_Distractor.gif"",""img/Fire_Down_Distractor.gif"",""img/Fire_Down_Distractor.gif"",""img/Fire_Down_Distractor.gif"",""img/Fire_Down_Distractor.gif"",""img/Fire_Down_Distractor.gif"",""img/Fire_Down_Distractor.gif"",""img/Fire_Down_Distractor.gif"",""img/Fire_Down_Distractor.gif"",""img/Fire_Down_Distractor.gif"",""img/Fire_Down_Distractor.gif""]","7","targetUp_distractorsDown"
"","","","","","html-keyboard-response","76","232209","0.0-14.0-0.0-0.31","5fbb42988a2ddbc42227e890","619531dcf66c91622fa1b861","619595b5fe19df9936f739a0","null","","null","","","","","main_T1_ITI","","","","",""
"","","","","","visual-search-circle","77","235326","0.0-14.0-0.0-1.31","5fbb42988a2ddbc42227e890","619531dcf66c91622fa1b861","619595b5fe19df9936f739a0","2108","","s","false","[[159,564],[508,515],[569,168],[258,2],[4,247]]","true","5","main_T2_Trial","d","img/Fire_Up_Target.gif","[""img/Fire_Down_Distractor.gif"",""img/Fire_Down_Distractor.gif"",""img/Fire_Down_Distractor.gif"",""img/Fire_Down_Distractor.gif"",""img/Fire_Down_Distractor.gif"",""img/Fire_Down_Distractor.gif"",""img/Fire_Down_Distractor.gif"",""img/Fire_Down_Distractor.gif"",""img/Fire_Down_Distractor.gif"",""img/Fire_Down_Distractor.gif"",""img/Fire_Down_Distractor.gif"",""img/Fire_Down_Distractor.gif""]","5","targetUp_distractorsDown"
"","","","","","html-keyboard-response","78","235326","0.0-14.0-0.0-0.32","5fbb42988a2ddbc42227e890","619531dcf66c91622fa1b861","619595b5fe19df9936f739a0","null","","null","","","","","main_T1_ITI","","","","",""
"","","","","","visual-search-circle","79","237499","0.0-14.0-0.0-1.32","5fbb42988a2ddbc42227e890","619531dcf66c91622fa1b861","619595b5fe19df9936f739a0","1165","","d","true","[[496,526],[599,287],[476,57],[220,10],[24,181],[35,441],[245,595]]","true","7","main_T2_Trial","d","img/Fire_Up_Target.gif","[""img/Fire_Down_Distractor.gif"",""img/Fire_Down_Distractor.gif"",""img/Fire_Down_Distractor.gif"",""img/Fire_Down_Distractor.gif"",""img/Fire_Down_Distractor.gif"",""img/Fire_Down_Distractor.gif"",""img/Fire_Down_Distractor.gif"",""img/Fire_Down_Distractor.gif"",""img/Fire_Down_Distractor.gif"",""img/Fire_Down_Distractor.gif"",""img/Fire_Down_Distractor.gif"",""img/Fire_Down_Distractor.gif""]","7","targetUp_distractorsDown"
"","","","","","html-keyboard-response","80","237499","0.0-14.0-0.0-0.33","5fbb42988a2ddbc42227e890","619531dcf66c91622fa1b861","619595b5fe19df9936f739a0","null","","null","","","","","main_T1_ITI","","","","",""
"","","","","","visual-search-circle","81","240453","0.0-14.0-0.0-1.33","5fbb42988a2ddbc42227e890","619531dcf66c91622fa1b861","619595b5fe19df9936f739a0","1949","","d","true","[[127,545],[545,472],[472,54],[54,127]]","true","4","main_T2_Trial","d","img/Fire_Up_Target.gif","[""img/Fire_Down_Distractor.gif"",""img/Fire_Down_Distractor.gif"",""img/Fire_Down_Distractor.gif"",""img/Fire_Down_Distractor.gif"",""img/Fire_Down_Distractor.gif"",""img/Fire_Down_Distractor.gif"",""img/Fire_Down_Distractor.gif"",""img/Fire_Down_Distractor.gif"",""img/Fire_Down_Distractor.gif"",""img/Fire_Down_Distractor.gif"",""img/Fire_Down_Distractor.gif"",""img/Fire_Down_Distractor.gif""]","4","targetUp_distractorsDown"
"","","","","","html-keyboard-response","82","240453","0.0-14.0-0.0-0.34","5fbb42988a2ddbc42227e890","619531dcf66c91622fa1b861","619595b5fe19df9936f739a0","null","","null","","","","","main_T1_ITI","","","","",""
"","","","","","visual-search-circle","83","242472","0.0-14.0-0.0-1.34","5fbb42988a2ddbc42227e890","619531dcf66c91622fa1b861","619595b5fe19df9936f739a0","1014","","s","true","[[103,526],[320,599],[526,496],[599,279],[496,73],[279,0],[73,103],[0,320]]","false","8","main_T2_Trial","s","img/Fire_Down_Target.gif","[""img/Fire_Up_Distractor.gif"",""img/Fire_Up_Distractor.gif"",""img/Fire_Up_Distractor.gif"",""img/Fire_Up_Distractor.gif"",""img/Fire_Up_Distractor.gif"",""img/Fire_Up_Distractor.gif"",""img/Fire_Up_Distractor.gif"",""img/Fire_Up_Distractor.gif"",""img/Fire_Up_Distractor.gif"",""img/Fire_Up_Distractor.gif"",""img/Fire_Up_Distractor.gif"",""img/Fire_Up_Distractor.gif""]","8","targetDown_distractorsUp"
"","","","","","html-keyboard-response","84","242473","0.0-14.0-0.0-0.35","5fbb42988a2ddbc42227e890","619531dcf66c91622fa1b861","619595b5fe19df9936f739a0","null","","null","","","","","main_T1_ITI","","","","",""
"","","","","","visual-search-circle","85","244501","0.0-14.0-0.0-1.35","5fbb42988a2ddbc42227e890","619531dcf66c91622fa1b861","619595b5fe19df9936f739a0","1024","","s","true","[[426,571],[581,402],[571,173],[402,18],[173,28],[18,197],[28,426],[197,581]]","false","8","main_T2_Trial","s","img/Fire_Up_Target.gif","[""img/Fire_Down_Distractor.gif"",""img/Fire_Down_Distractor.gif"",""img/Fire_Down_Distractor.gif"",""img/Fire_Down_Distractor.gif"",""img/Fire_Down_Distractor.gif"",""img/Fire_Down_Distractor.gif"",""img/Fire_Down_Distractor.gif"",""img/Fire_Down_Distractor.gif"",""img/Fire_Down_Distractor.gif"",""img/Fire_Down_Distractor.gif"",""img/Fire_Down_Distractor.gif"",""img/Fire_Down_Distractor.gif""]","8","targetUp_distractorsDown"
"","","","","","html-keyboard-response","86","244501","0.0-14.0-0.0-0.36","5fbb42988a2ddbc42227e890","619531dcf66c91622fa1b861","619595b5fe19df9936f739a0","null","","null","","","","","main_T1_ITI","","","","",""
"","","","","","visual-search-circle","87","246687","0.0-14.0-0.0-1.36","5fbb42988a2ddbc42227e890","619531dcf66c91622fa1b861","619595b5fe19df9936f739a0","1180","","s","false","[[8,227],[61,482],[294,599],[530,491],[593,239],[435,32],[175,27]]","true","7","main_T2_Trial","d","img/Fire_Up_Target.gif","[""img/Fire_Down_Distractor.gif"",""img/Fire_Down_Distractor.gif"",""img/Fire_Down_Distractor.gif"",""img/Fire_Down_Distractor.gif"",""img/Fire_Down_Distractor.gif"",""img/Fire_Down_Distractor.gif"",""img/Fire_Down_Distractor.gif"",""img/Fire_Down_Distractor.gif"",""img/Fire_Down_Distractor.gif"",""img/Fire_Down_Distractor.gif"",""img/Fire_Down_Distractor.gif"",""img/Fire_Down_Distractor.gif""]","7","targetUp_distractorsDown"
"","","","","","html-keyboard-response","88","246687","0.0-14.0-0.0-0.37","5fbb42988a2ddbc42227e890","619531dcf66c91622fa1b861","619595b5fe19df9936f739a0","null","","null","","","","","main_T1_ITI","","","","",""
"","","","","","visual-search-circle","89","248494","0.0-14.0-0.0-1.37","5fbb42988a2ddbc42227e890","619531dcf66c91622fa1b861","619595b5fe19df9936f739a0","791","","s","true","[[496,526],[599,320],[526,103],[320,0],[103,73],[0,279],[73,496],[279,599]]","false","8","main_T2_Trial","s","img/Fire_Down_Target.gif","[""img/Fire_Up_Distractor.gif"",""img/Fire_Up_Distractor.gif"",""img/Fire_Up_Distractor.gif"",""img/Fire_Up_Distractor.gif"",""img/Fire_Up_Distractor.gif"",""img/Fire_Up_Distractor.gif"",""img/Fire_Up_Distractor.gif"",""img/Fire_Up_Distractor.gif"",""img/Fire_Up_Distractor.gif"",""img/Fire_Up_Distractor.gif"",""img/Fire_Up_Distractor.gif"",""img/Fire_Up_Distractor.gif""]","8","targetDown_distractorsUp"
"","","","","","html-keyboard-response","90","248494","0.0-14.0-0.0-0.38","5fbb42988a2ddbc42227e890","619531dcf66c91622fa1b861","619595b5fe19df9936f739a0","null","","null","","","","","main_T1_ITI","","","","",""
"","","","","","visual-search-circle","91","250341","0.0-14.0-0.0-1.38","5fbb42988a2ddbc42227e890","619531dcf66c91622fa1b861","619595b5fe19df9936f739a0","842","","d","true","[[145,557],[372,591],[557,454],[591,227],[454,42],[227,8],[42,145],[8,372]]","true","8","main_T2_Trial","d","img/Fire_Up_Target.gif","[""img/Fire_Down_Distractor.gif"",""img/Fire_Down_Distractor.gif"",""img/Fire_Down_Distractor.gif"",""img/Fire_Down_Distractor.gif"",""img/Fire_Down_Distractor.gif"",""img/Fire_Down_Distractor.gif"",""img/Fire_Down_Distractor.gif"",""img/Fire_Down_Distractor.gif"",""img/Fire_Down_Distractor.gif"",""img/Fire_Down_Distractor.gif"",""img/Fire_Down_Distractor.gif"",""img/Fire_Down_Distractor.gif""]","8","targetUp_distractorsDown"
"","","","","","html-keyboard-response","92","251541","0.0-14.0-0.0-0.39","5fbb42988a2ddbc42227e890","619531dcf66c91622fa1b861","619595b5fe19df9936f739a0","1200","Wow! You've completed 40 out of 160 trials! </p> <p>  </p><p> Take a quick break, then press any key when you're ready to continue."," ","","","","","main_T1_ITI","","","","",""
"","","","","","visual-search-circle","93","253658","0.0-14.0-0.0-1.39","5fbb42988a2ddbc42227e890","619531dcf66c91622fa1b861","619595b5fe19df9936f739a0","1108","","s","true","[[392,585],[580,405],[557,146],[340,2],[92,83],[1,326],[134,550]]","false","7","main_T2_Trial","s","img/Fire_Down_Target.gif","[""img/Fire_Up_Distractor.gif"",""img/Fire_Up_Distractor.gif"",""img/Fire_Up_Distractor.gif"",""img/Fire_Up_Distractor.gif"",""img/Fire_Up_Distractor.gif"",""img/Fire_Up_Distractor.gif"",""img/Fire_Up_Distractor.gif"",""img/Fire_Up_Distractor.gif"",""img/Fire_Up_Distractor.gif"",""img/Fire_Up_Distractor.gif"",""img/Fire_Up_Distractor.gif"",""img/Fire_Up_Distractor.gif""]","7","targetDown_distractorsUp"
"","","","","","html-keyboard-response","94","253658","0.0-14.0-0.0-0.40","5fbb42988a2ddbc42227e890","619531dcf66c91622fa1b861","619595b5fe19df9936f739a0","null","","null","","","","","main_T1_ITI","","","","",""
"","","","","","visual-search-circle","95","255491","0.0-14.0-0.0-1.40","5fbb42988a2ddbc42227e890","619531dcf66c91622fa1b861","619595b5fe19df9936f739a0","822","","s","false","[[10,222],[222,589],[589,377],[377,10]]","true","4","main_T2_Trial","d","img/Fire_Up_Target.gif","[""img/Fire_Down_Distractor.gif"",""img/Fire_Down_Distractor.gif"",""img/Fire_Down_Distractor.gif"",""img/Fire_Down_Distractor.gif"",""img/Fire_Down_Distractor.gif"",""img/Fire_Down_Distractor.gif"",""img/Fire_Down_Distractor.gif"",""img/Fire_Down_Distractor.gif"",""img/Fire_Down_Distractor.gif"",""img/Fire_Down_Distractor.gif"",""img/Fire_Down_Distractor.gif"",""img/Fire_Down_Distractor.gif""]","4","targetUp_distractorsDown"
"","","","","","html-keyboard-response","96","255491","0.0-14.0-0.0-0.41","5fbb42988a2ddbc42227e890","619531dcf66c91622fa1b861","619595b5fe19df9936f739a0","null","","null","","","","","main_T1_ITI","","","","",""
"","","","","","visual-search-circle","97","257711","0.0-14.0-0.0-1.41","5fbb42988a2ddbc42227e890","619531dcf66c91622fa1b861","619595b5fe19df9936f739a0","1217","","d","true","[[599,310],[458,45],[159,35],[0,289],[141,554],[440,564]]","true","6","main_T2_Trial","d","img/Fire_Down_Target.gif","[""img/Fire_Up_Distractor.gif"",""img/Fire_Up_Distractor.gif"",""img/Fire_Up_Distractor.gif"",""img/Fire_Up_Distractor.gif"",""img/Fire_Up_Distractor.gif"",""img/Fire_Up_Distractor.gif"",""img/Fire_Up_Distractor.gif"",""img/Fire_Up_Distractor.gif"",""img/Fire_Up_Distractor.gif"",""img/Fire_Up_Distractor.gif"",""img/Fire_Up_Distractor.gif"",""img/Fire_Up_Distractor.gif""]","6","targetDown_distractorsUp"
"","","","","","html-keyboard-response","98","257711","0.0-14.0-0.0-0.42","5fbb42988a2ddbc42227e890","619531dcf66c91622fa1b861","619595b5fe19df9936f739a0","null","","null","","","","","main_T1_ITI","","","","",""
"","","","","","visual-search-circle","99","263307","0.0-14.0-0.0-1.42","5fbb42988a2ddbc42227e890","619531dcf66c91622fa1b861","619595b5fe19df9936f739a0","4586","","s","true","[[168,569],[397,583],[569,431],[583,202],[431,30],[202,16],[30,168],[16,397]]","false","8","main_T2_Trial","s","img/Fire_Down_Target.gif","[""img/Fire_Up_Distractor.gif"",""img/Fire_Up_Distractor.gif"",""img/Fire_Up_Distractor.gif"",""img/Fire_Up_Distractor.gif"",""img/Fire_Up_Distractor.gif"",""img/Fire_Up_Distractor.gif"",""img/Fire_Up_Distractor.gif"",""img/Fire_Up_Distractor.gif"",""img/Fire_Up_Distractor.gif"",""img/Fire_Up_Distractor.gif"",""img/Fire_Up_Distractor.gif"",""img/Fire_Up_Distractor.gif""]","8","targetDown_distractorsUp"
"","","","","","html-keyboard-response","100","263307","0.0-14.0-0.0-0.43","5fbb42988a2ddbc42227e890","619531dcf66c91622fa1b861","619595b5fe19df9936f739a0","null","","null","","","","","main_T1_ITI","","","","",""
"","","","","","visual-search-circle","101","265090","0.0-14.0-0.0-1.43","5fbb42988a2ddbc42227e890","619531dcf66c91622fa1b861","619595b5fe19df9936f739a0","781","","s","true","[[500,522],[522,99],[99,77],[77,500]]","false","4","main_T2_Trial","s","img/Fire_Up_Target.gif","[""img/Fire_Down_Distractor.gif"",""img/Fire_Down_Distractor.gif"",""img/Fire_Down_Distractor.gif"",""img/Fire_Down_Distractor.gif"",""img/Fire_Down_Distractor.gif"",""img/Fire_Down_Distractor.gif"",""img/Fire_Down_Distractor.gif"",""img/Fire_Down_Distractor.gif"",""img/Fire_Down_Distractor.gif"",""img/Fire_Down_Distractor.gif"",""img/Fire_Down_Distractor.gif"",""img/Fire_Down_Distractor.gif""]","4","targetUp_distractorsDown"
"","","","","","html-keyboard-response","102","265090","0.0-14.0-0.0-0.44","5fbb42988a2ddbc42227e890","619531dcf66c91622fa1b861","619595b5fe19df9936f739a0","null","","null","","","","","main_T1_ITI","","","","",""
"","","","","","visual-search-circle","103","266888","0.0-14.0-0.0-1.44","5fbb42988a2ddbc42227e890","619531dcf66c91622fa1b861","619595b5fe19df9936f739a0","789","","s","false","[[3,253],[253,596],[596,346],[346,3]]","true","4","main_T2_Trial","d","img/Fire_Down_Target.gif","[""img/Fire_Up_Distractor.gif"",""img/Fire_Up_Distractor.gif"",""img/Fire_Up_Distractor.gif"",""img/Fire_Up_Distractor.gif"",""img/Fire_Up_Distractor.gif"",""img/Fire_Up_Distractor.gif"",""img/Fire_Up_Distractor.gif"",""img/Fire_Up_Distractor.gif"",""img/Fire_Up_Distractor.gif"",""img/Fire_Up_Distractor.gif"",""img/Fire_Up_Distractor.gif"",""img/Fire_Up_Distractor.gif""]","4","targetDown_distractorsUp"
"","","","","","html-keyboard-response","104","266889","0.0-14.0-0.0-0.45","5fbb42988a2ddbc42227e890","619531dcf66c91622fa1b861","619595b5fe19df9936f739a0","null","","null","","","","","main_T1_ITI","","","","",""
"","","","","","visual-search-circle","105","269438","0.0-14.0-0.0-1.45","5fbb42988a2ddbc42227e890","619531dcf66c91622fa1b861","619595b5fe19df9936f739a0","1535","","d","true","[[1,268],[268,598],[598,331],[331,1]]","true","4","main_T2_Trial","d","img/Fire_Up_Target.gif","[""img/Fire_Down_Distractor.gif"",""img/Fire_Down_Distractor.gif"",""img/Fire_Down_Distractor.gif"",""img/Fire_Down_Distractor.gif"",""img/Fire_Down_Distractor.gif"",""img/Fire_Down_Distractor.gif"",""img/Fire_Down_Distractor.gif"",""img/Fire_Down_Distractor.gif"",""img/Fire_Down_Distractor.gif"",""img/Fire_Down_Distractor.gif"",""img/Fire_Down_Distractor.gif"",""img/Fire_Down_Distractor.gif""]","4","targetUp_distractorsDown"
"","","","","","html-keyboard-response","106","269438","0.0-14.0-0.0-0.46","5fbb42988a2ddbc42227e890","619531dcf66c91622fa1b861","619595b5fe19df9936f739a0","null","","null","","","","","main_T1_ITI","","","","",""
"","","","","","visual-search-circle","107","274689","0.0-14.0-0.0-1.46","5fbb42988a2ddbc42227e890","619531dcf66c91622fa1b861","619595b5fe19df9936f739a0","4240","","d","true","[[45,141],[17,399],[201,583],[460,553],[598,332],[511,87],[265,1]]","true","7","main_T2_Trial","d","img/Fire_Up_Target.gif","[""img/Fire_Down_Distractor.gif"",""img/Fire_Down_Distractor.gif"",""img/Fire_Down_Distractor.gif"",""img/Fire_Down_Distractor.gif"",""img/Fire_Down_Distractor.gif"",""img/Fire_Down_Distractor.gif"",""img/Fire_Down_Distractor.gif"",""img/Fire_Down_Distractor.gif"",""img/Fire_Down_Distractor.gif"",""img/Fire_Down_Distractor.gif"",""img/Fire_Down_Distractor.gif"",""img/Fire_Down_Distractor.gif""]","7","targetUp_distractorsDown"
"","","","","","html-keyboard-response","108","274690","0.0-14.0-0.0-0.47","5fbb42988a2ddbc42227e890","619531dcf66c91622fa1b861","619595b5fe19df9936f739a0","null","","null","","","","","main_T1_ITI","","","","",""
"","","","","","visual-search-circle","109","279130","0.0-14.0-0.0-1.47","5fbb42988a2ddbc42227e890","619531dcf66c91622fa1b861","619595b5fe19df9936f739a0","3436","","s","true","[[305,0],[16,202],[119,539],[472,545],[586,212]]","false","5","main_T2_Trial","s","img/Fire_Up_Target.gif","[""img/Fire_Down_Distractor.gif"",""img/Fire_Down_Distractor.gif"",""img/Fire_Down_Distractor.gif"",""img/Fire_Down_Distractor.gif"",""img/Fire_Down_Distractor.gif"",""img/Fire_Down_Distractor.gif"",""img/Fire_Down_Distractor.gif"",""img/Fire_Down_Distractor.gif"",""img/Fire_Down_Distractor.gif"",""img/Fire_Down_Distractor.gif"",""img/Fire_Down_Distractor.gif"",""img/Fire_Down_Distractor.gif""]","5","targetUp_distractorsDown"
"","","","","","html-keyboard-response","110","279131","0.0-14.0-0.0-0.48","5fbb42988a2ddbc42227e890","619531dcf66c91622fa1b861","619595b5fe19df9936f739a0","null","","null","","","","","main_T1_ITI","","","","",""
"","","","","","visual-search-circle","111","281517","0.0-14.0-0.0-1.48","5fbb42988a2ddbc42227e890","619531dcf66c91622fa1b861","619595b5fe19df9936f739a0","1381","","s","true","[[341,2],[63,115],[21,412],[258,597],[536,484],[578,187]]","false","6","main_T2_Trial","s","img/Fire_Down_Target.gif","[""img/Fire_Up_Distractor.gif"",""img/Fire_Up_Distractor.gif"",""img/Fire_Up_Distractor.gif"",""img/Fire_Up_Distractor.gif"",""img/Fire_Up_Distractor.gif"",""img/Fire_Up_Distractor.gif"",""img/Fire_Up_Distractor.gif"",""img/Fire_Up_Distractor.gif"",""img/Fire_Up_Distractor.gif"",""img/Fire_Up_Distractor.gif"",""img/Fire_Up_Distractor.gif"",""img/Fire_Up_Distractor.gif""]","6","targetDown_distractorsUp"
"","","","","","html-keyboard-response","112","281517","0.0-14.0-0.0-0.49","5fbb42988a2ddbc42227e890","619531dcf66c91622fa1b861","619595b5fe19df9936f739a0","null","","null","","","","","main_T1_ITI","","","","",""
"","","","","","visual-search-circle","113","283459","0.0-14.0-0.0-1.49","5fbb42988a2ddbc42227e890","619531dcf66c91622fa1b861","619595b5fe19df9936f739a0","938","","s","true","[[357,594],[565,438],[574,178],[376,9],[120,59],[0,290],[105,528]]","false","7","main_T2_Trial","s","img/Fire_Up_Target.gif","[""img/Fire_Down_Distractor.gif"",""img/Fire_Down_Distractor.gif"",""img/Fire_Down_Distractor.gif"",""img/Fire_Down_Distractor.gif"",""img/Fire_Down_Distractor.gif"",""img/Fire_Down_Distractor.gif"",""img/Fire_Down_Distractor.gif"",""img/Fire_Down_Distractor.gif"",""img/Fire_Down_Distractor.gif"",""img/Fire_Down_Distractor.gif"",""img/Fire_Down_Distractor.gif"",""img/Fire_Down_Distractor.gif""]","7","targetUp_distractorsDown"
"","","","","","html-keyboard-response","114","283459","0.0-14.0-0.0-0.50","5fbb42988a2ddbc42227e890","619531dcf66c91622fa1b861","619595b5fe19df9936f739a0","null","","null","","","","","main_T1_ITI","","","","",""
"","","","","","visual-search-circle","115","285524","0.0-14.0-0.0-1.50","5fbb42988a2ddbc42227e890","619531dcf66c91622fa1b861","619595b5fe19df9936f739a0","1048","","d","true","[[492,529],[598,326],[529,107],[326,1],[107,70],[1,273],[70,492],[273,598]]","true","8","main_T2_Trial","d","img/Fire_Down_Target.gif","[""img/Fire_Up_Distractor.gif"",""img/Fire_Up_Distractor.gif"",""img/Fire_Up_Distractor.gif"",""img/Fire_Up_Distractor.gif"",""img/Fire_Up_Distractor.gif"",""img/Fire_Up_Distractor.gif"",""img/Fire_Up_Distractor.gif"",""img/Fire_Up_Distractor.gif"",""img/Fire_Up_Distractor.gif"",""img/Fire_Up_Distractor.gif"",""img/Fire_Up_Distractor.gif"",""img/Fire_Up_Distractor.gif""]","8","targetDown_distractorsUp"
"","","","","","html-keyboard-response","116","285524","0.0-14.0-0.0-0.51","5fbb42988a2ddbc42227e890","619531dcf66c91622fa1b861","619595b5fe19df9936f739a0","null","","null","","","","","main_T1_ITI","","","","",""
"","","","","","visual-search-circle","117","287718","0.0-14.0-0.0-1.51","5fbb42988a2ddbc42227e890","619531dcf66c91622fa1b861","619595b5fe19df9936f739a0","1180","","d","true","[[247,595],[529,492],[581,197],[352,4],[70,107],[18,402]]","true","6","main_T2_Trial","d","img/Fire_Up_Target.gif","[""img/Fire_Down_Distractor.gif"",""img/Fire_Down_Distractor.gif"",""img/Fire_Down_Distractor.gif"",""img/Fire_Down_Distractor.gif"",""img/Fire_Down_Distractor.gif"",""img/Fire_Down_Distractor.gif"",""img/Fire_Down_Distractor.gif"",""img/Fire_Down_Distractor.gif"",""img/Fire_Down_Distractor.gif"",""img/Fire_Down_Distractor.gif"",""img/Fire_Down_Distractor.gif"",""img/Fire_Down_Distractor.gif""]","6","targetUp_distractorsDown"
"","","","","","html-keyboard-response","118","287718","0.0-14.0-0.0-0.52","5fbb42988a2ddbc42227e890","619531dcf66c91622fa1b861","619595b5fe19df9936f739a0","null","","null","","","","","main_T1_ITI","","","","",""
"","","","","","visual-search-circle","119","289891","0.0-14.0-0.0-1.52","5fbb42988a2ddbc42227e890","619531dcf66c91622fa1b861","619595b5fe19df9936f739a0","1170","","s","true","[[578,187],[187,21],[21,412],[412,578]]","false","4","main_T2_Trial","s","img/Fire_Down_Target.gif","[""img/Fire_Up_Distractor.gif"",""img/Fire_Up_Distractor.gif"",""img/Fire_Up_Distractor.gif"",""img/Fire_Up_Distractor.gif"",""img/Fire_Up_Distractor.gif"",""img/Fire_Up_Distractor.gif"",""img/Fire_Up_Distractor.gif"",""img/Fire_Up_Distractor.gif"",""img/Fire_Up_Distractor.gif"",""img/Fire_Up_Distractor.gif"",""img/Fire_Up_Distractor.gif"",""img/Fire_Up_Distractor.gif""]","4","targetDown_distractorsUp"
"","","","","","html-keyboard-response","120","289891","0.0-14.0-0.0-0.53","5fbb42988a2ddbc42227e890","619531dcf66c91622fa1b861","619595b5fe19df9936f739a0","null","","null","","","","","main_T1_ITI","","","","",""
"","","","","","visual-search-circle","121","291871","0.0-14.0-0.0-1.53","5fbb42988a2ddbc42227e890","619531dcf66c91622fa1b861","619595b5fe19df9936f739a0","975","","s","true","[[279,0],[30,168],[51,467],[320,599],[569,431],[548,132]]","false","6","main_T2_Trial","s","img/Fire_Up_Target.gif","[""img/Fire_Down_Distractor.gif"",""img/Fire_Down_Distractor.gif"",""img/Fire_Down_Distractor.gif"",""img/Fire_Down_Distractor.gif"",""img/Fire_Down_Distractor.gif"",""img/Fire_Down_Distractor.gif"",""img/Fire_Down_Distractor.gif"",""img/Fire_Down_Distractor.gif"",""img/Fire_Down_Distractor.gif"",""img/Fire_Down_Distractor.gif"",""img/Fire_Down_Distractor.gif"",""img/Fire_Down_Distractor.gif""]","6","targetUp_distractorsDown"
"","","","","","html-keyboard-response","122","291871","0.0-14.0-0.0-0.54","5fbb42988a2ddbc42227e890","619531dcf66c91622fa1b861","619595b5fe19df9936f739a0","null","","null","","","","","main_T1_ITI","","","","",""
"","","","","","visual-search-circle","123","293658","0.0-14.0-0.0-1.54","5fbb42988a2ddbc42227e890","619531dcf66c91622fa1b861","619595b5fe19df9936f739a0","784","","s","true","[[377,589],[599,315],[407,19],[66,111],[48,463]]","false","5","main_T2_Trial","s","img/Fire_Down_Target.gif","[""img/Fire_Up_Distractor.gif"",""img/Fire_Up_Distractor.gif"",""img/Fire_Up_Distractor.gif"",""img/Fire_Up_Distractor.gif"",""img/Fire_Up_Distractor.gif"",""img/Fire_Up_Distractor.gif"",""img/Fire_Up_Distractor.gif"",""img/Fire_Up_Distractor.gif"",""img/Fire_Up_Distractor.gif"",""img/Fire_Up_Distractor.gif"",""img/Fire_Up_Distractor.gif"",""img/Fire_Up_Distractor.gif""]","5","targetDown_distractorsUp"
"","","","","","html-keyboard-response","124","293659","0.0-14.0-0.0-0.55","5fbb42988a2ddbc42227e890","619531dcf66c91622fa1b861","619595b5fe19df9936f739a0","null","","null","","","","","main_T1_ITI","","","","",""
"","","","","","visual-search-circle","125","295227","0.0-14.0-0.0-1.55","5fbb42988a2ddbc42227e890","619531dcf66c91622fa1b861","619595b5fe19df9936f739a0","557","","s","false","[[417,23],[73,103],[42,454],[367,592],[598,326]]","true","5","main_T2_Trial","d","img/Fire_Down_Target.gif","[""img/Fire_Up_Distractor.gif"",""img/Fire_Up_Distractor.gif"",""img/Fire_Up_Distractor.gif"",""img/Fire_Up_Distractor.gif"",""img/Fire_Up_Distractor.gif"",""img/Fire_Up_Distractor.gif"",""img/Fire_Up_Distractor.gif"",""img/Fire_Up_Distractor.gif"",""img/Fire_Up_Distractor.gif"",""img/Fire_Up_Distractor.gif"",""img/Fire_Up_Distractor.gif"",""img/Fire_Up_Distractor.gif""]","5","targetDown_distractorsUp"
"","","","","","html-keyboard-response","126","295228","0.0-14.0-0.0-0.56","5fbb42988a2ddbc42227e890","619531dcf66c91622fa1b861","619595b5fe19df9936f739a0","null","","null","","","","","main_T1_ITI","","","","",""
"","","","","","visual-search-circle","127","297255","0.0-14.0-0.0-1.56","5fbb42988a2ddbc42227e890","619531dcf66c91622fa1b861","619595b5fe19df9936f739a0","1023","","d","false","[[397,583],[569,431],[583,202],[431,30],[202,16],[30,168],[16,397],[168,569]]","false","8","main_T2_Trial","s","img/Fire_Down_Target.gif","[""img/Fire_Up_Distractor.gif"",""img/Fire_Up_Distractor.gif"",""img/Fire_Up_Distractor.gif"",""img/Fire_Up_Distractor.gif"",""img/Fire_Up_Distractor.gif"",""img/Fire_Up_Distractor.gif"",""img/Fire_Up_Distractor.gif"",""img/Fire_Up_Distractor.gif"",""img/Fire_Up_Distractor.gif"",""img/Fire_Up_Distractor.gif"",""img/Fire_Up_Distractor.gif"",""img/Fire_Up_Distractor.gif""]","8","targetDown_distractorsUp"
"","","","","","html-keyboard-response","128","297255","0.0-14.0-0.0-0.57","5fbb42988a2ddbc42227e890","619531dcf66c91622fa1b861","619595b5fe19df9936f739a0","null","","null","","","","","main_T1_ITI","","","","",""
"","","","","","visual-search-circle","129","301408","0.0-14.0-0.0-1.57","5fbb42988a2ddbc42227e890","619531dcf66c91622fa1b861","619595b5fe19df9936f739a0","3151","","s","false","[[586,212],[305,0],[16,202],[119,539],[472,545]]","true","5","main_T2_Trial","d","img/Fire_Up_Target.gif","[""img/Fire_Down_Distractor.gif"",""img/Fire_Down_Distractor.gif"",""img/Fire_Down_Distractor.gif"",""img/Fire_Down_Distractor.gif"",""img/Fire_Down_Distractor.gif"",""img/Fire_Down_Distractor.gif"",""img/Fire_Down_Distractor.gif"",""img/Fire_Down_Distractor.gif"",""img/Fire_Down_Distractor.gif"",""img/Fire_Down_Distractor.gif"",""img/Fire_Down_Distractor.gif"",""img/Fire_Down_Distractor.gif""]","5","targetUp_distractorsDown"
"","","","","","html-keyboard-response","130","301408","0.0-14.0-0.0-0.58","5fbb42988a2ddbc42227e890","619531dcf66c91622fa1b861","619595b5fe19df9936f739a0","null","","null","","","","","main_T1_ITI","","","","",""
"","","","","","visual-search-circle","131","303410","0.0-14.0-0.0-1.58","5fbb42988a2ddbc42227e890","619531dcf66c91622fa1b861","619595b5fe19df9936f739a0","986","","d","true","[[593,362],[362,6],[6,237],[237,593]]","true","4","main_T2_Trial","d","img/Fire_Down_Target.gif","[""img/Fire_Up_Distractor.gif"",""img/Fire_Up_Distractor.gif"",""img/Fire_Up_Distractor.gif"",""img/Fire_Up_Distractor.gif"",""img/Fire_Up_Distractor.gif"",""img/Fire_Up_Distractor.gif"",""img/Fire_Up_Distractor.gif"",""img/Fire_Up_Distractor.gif"",""img/Fire_Up_Distractor.gif"",""img/Fire_Up_Distractor.gif"",""img/Fire_Up_Distractor.gif"",""img/Fire_Up_Distractor.gif""]","4","targetDown_distractorsUp"
"","","","","","html-keyboard-response","132","304338","0.0-14.0-0.0-0.59","5fbb42988a2ddbc42227e890","619531dcf66c91622fa1b861","619595b5fe19df9936f739a0","928","Wow! You've completed 60 out of 160 trials! </p> <p>  </p><p> Take a quick break, then press any key when you're ready to continue."," ","","","","","main_T1_ITI","","","","",""
"","","","","","visual-search-circle","133","307077","0.0-14.0-0.0-1.59","5fbb42988a2ddbc42227e890","619531dcf66c91622fa1b861","619595b5fe19df9936f739a0","1730","","d","true","[[467,548],[599,279],[431,30],[132,51],[0,320],[168,569]]","true","6","main_T2_Trial","d","img/Fire_Down_Target.gif","[""img/Fire_Up_Distractor.gif"",""img/Fire_Up_Distractor.gif"",""img/Fire_Up_Distractor.gif"",""img/Fire_Up_Distractor.gif"",""img/Fire_Up_Distractor.gif"",""img/Fire_Up_Distractor.gif"",""img/Fire_Up_Distractor.gif"",""img/Fire_Up_Distractor.gif"",""img/Fire_Up_Distractor.gif"",""img/Fire_Up_Distractor.gif"",""img/Fire_Up_Distractor.gif"",""img/Fire_Up_Distractor.gif""]","6","targetDown_distractorsUp"
"","","","","","html-keyboard-response","134","307077","0.0-14.0-0.0-0.60","5fbb42988a2ddbc42227e890","619531dcf66c91622fa1b861","619595b5fe19df9936f739a0","null","","null","","","","","main_T1_ITI","","","","",""
"","","","","","visual-search-circle","135","309087","0.0-14.0-0.0-1.60","5fbb42988a2ddbc42227e890","619531dcf66c91622fa1b861","619595b5fe19df9936f739a0","996","","s","true","[[40,450],[299,600],[559,450],[559,150],[300,0],[40,150]]","false","6","main_T2_Trial","s","img/Fire_Up_Target.gif","[""img/Fire_Down_Distractor.gif"",""img/Fire_Down_Distractor.gif"",""img/Fire_Down_Distractor.gif"",""img/Fire_Down_Distractor.gif"",""img/Fire_Down_Distractor.gif"",""img/Fire_Down_Distractor.gif"",""img/Fire_Down_Distractor.gif"",""img/Fire_Down_Distractor.gif"",""img/Fire_Down_Distractor.gif"",""img/Fire_Down_Distractor.gif"",""img/Fire_Down_Distractor.gif"",""img/Fire_Down_Distractor.gif""]","6","targetUp_distractorsDown"
"","","","","","html-keyboard-response","136","309087","0.0-14.0-0.0-0.61","5fbb42988a2ddbc42227e890","619531dcf66c91622fa1b861","619595b5fe19df9936f739a0","null","","null","","","","","main_T1_ITI","","","","",""
"","","","","","visual-search-circle","137","311788","0.0-14.0-0.0-1.61","5fbb42988a2ddbc42227e890","619531dcf66c91622fa1b861","619595b5fe19df9936f739a0","1686","","s","false","[[0,279],[187,578],[529,492],[554,141],[227,8]]","true","5","main_T2_Trial","d","img/Fire_Down_Target.gif","[""img/Fire_Up_Distractor.gif"",""img/Fire_Up_Distractor.gif"",""img/Fire_Up_Distractor.gif"",""img/Fire_Up_Distractor.gif"",""img/Fire_Up_Distractor.gif"",""img/Fire_Up_Distractor.gif"",""img/Fire_Up_Distractor.gif"",""img/Fire_Up_Distractor.gif"",""img/Fire_Up_Distractor.gif"",""img/Fire_Up_Distractor.gif"",""img/Fire_Up_Distractor.gif"",""img/Fire_Up_Distractor.gif""]","5","targetDown_distractorsUp"
"","","","","","html-keyboard-response","138","311788","0.0-14.0-0.0-0.62","5fbb42988a2ddbc42227e890","619531dcf66c91622fa1b861","619595b5fe19df9936f739a0","null","","null","","","","","main_T1_ITI","","","","",""
"","","","","","visual-search-circle","139","314033","0.0-14.0-0.0-1.62","5fbb42988a2ddbc42227e890","619531dcf66c91622fa1b861","619595b5fe19df9936f739a0","1228","","s","false","[[132,548],[357,594],[548,467],[594,242],[467,51],[242,5],[51,132],[5,357]]","true","8","main_T2_Trial","d","img/Fire_Up_Target.gif","[""img/Fire_Down_Distractor.gif"",""img/Fire_Down_Distractor.gif"",""img/Fire_Down_Distractor.gif"",""img/Fire_Down_Distractor.gif"",""img/Fire_Down_Distractor.gif"",""img/Fire_Down_Distractor.gif"",""img/Fire_Down_Distractor.gif"",""img/Fire_Down_Distractor.gif"",""img/Fire_Down_Distractor.gif"",""img/Fire_Down_Distractor.gif"",""img/Fire_Down_Distractor.gif"",""img/Fire_Down_Distractor.gif""]","8","targetUp_distractorsDown"
"","","","","","html-keyboard-response","140","314033","0.0-14.0-0.0-0.63","5fbb42988a2ddbc42227e890","619531dcf66c91622fa1b861","619595b5fe19df9936f739a0","null","","null","","","","","main_T1_ITI","","","","",""
"","","","","","visual-search-circle","141","316381","0.0-14.0-0.0-1.63","5fbb42988a2ddbc42227e890","619531dcf66c91622fa1b861","619595b5fe19df9936f739a0","1333","","s","true","[[522,500],[585,207],[362,6],[77,99],[14,392],[237,593]]","false","6","main_T2_Trial","s","img/Fire_Down_Target.gif","[""img/Fire_Up_Distractor.gif"",""img/Fire_Up_Distractor.gif"",""img/Fire_Up_Distractor.gif"",""img/Fire_Up_Distractor.gif"",""img/Fire_Up_Distractor.gif"",""img/Fire_Up_Distractor.gif"",""img/Fire_Up_Distractor.gif"",""img/Fire_Up_Distractor.gif"",""img/Fire_Up_Distractor.gif"",""img/Fire_Up_Distractor.gif"",""img/Fire_Up_Distractor.gif"",""img/Fire_Up_Distractor.gif""]","6","targetDown_distractorsUp"
"","","","","","html-keyboard-response","142","316382","0.0-14.0-0.0-0.64","5fbb42988a2ddbc42227e890","619531dcf66c91622fa1b861","619595b5fe19df9936f739a0","null","","null","","","","","main_T1_ITI","","","","",""
"","","","","","visual-search-circle","143","318725","0.0-14.0-0.0-1.64","5fbb42988a2ddbc42227e890","619531dcf66c91622fa1b861","619595b5fe19df9936f739a0","1335","","s","true","[[103,73],[0,312],[123,542],[379,589],[575,418],[564,158],[354,4]]","false","7","main_T2_Trial","s","img/Fire_Up_Target.gif","[""img/Fire_Down_Distractor.gif"",""img/Fire_Down_Distractor.gif"",""img/Fire_Down_Distractor.gif"",""img/Fire_Down_Distractor.gif"",""img/Fire_Down_Distractor.gif"",""img/Fire_Down_Distractor.gif"",""img/Fire_Down_Distractor.gif"",""img/Fire_Down_Distractor.gif"",""img/Fire_Down_Distractor.gif"",""img/Fire_Down_Distractor.gif"",""img/Fire_Down_Distractor.gif"",""img/Fire_Down_Distractor.gif""]","7","targetUp_distractorsDown"
"","","","","","html-keyboard-response","144","318725","0.0-14.0-0.0-0.65","5fbb42988a2ddbc42227e890","619531dcf66c91622fa1b861","619595b5fe19df9936f739a0","null","","null","","","","","main_T1_ITI","","","","",""
"","","","","","visual-search-circle","145","320960","0.0-14.0-0.0-1.65","5fbb42988a2ddbc42227e890","619531dcf66c91622fa1b861","619595b5fe19df9936f739a0","1219","","s","true","[[132,51],[5,242],[51,467],[242,594],[467,548],[594,357],[548,132],[357,5]]","false","8","main_T2_Trial","s","img/Fire_Down_Target.gif","[""img/Fire_Up_Distractor.gif"",""img/Fire_Up_Distractor.gif"",""img/Fire_Up_Distractor.gif"",""img/Fire_Up_Distractor.gif"",""img/Fire_Up_Distractor.gif"",""img/Fire_Up_Distractor.gif"",""img/Fire_Up_Distractor.gif"",""img/Fire_Up_Distractor.gif"",""img/Fire_Up_Distractor.gif"",""img/Fire_Up_Distractor.gif"",""img/Fire_Up_Distractor.gif"",""img/Fire_Up_Distractor.gif""]","8","targetDown_distractorsUp"
"","","","","","html-keyboard-response","146","320960","0.0-14.0-0.0-0.66","5fbb42988a2ddbc42227e890","619531dcf66c91622fa1b861","619595b5fe19df9936f739a0","null","","null","","","","","main_T1_ITI","","","","",""
"","","","","","visual-search-circle","147","322793","0.0-14.0-0.0-1.66","5fbb42988a2ddbc42227e890","619531dcf66c91622fa1b861","619595b5fe19df9936f739a0","829","","d","true","[[463,551],[593,362],[551,136],[362,6],[136,48],[6,237],[48,463],[237,593]]","true","8","main_T2_Trial","d","img/Fire_Up_Target.gif","[""img/Fire_Down_Distractor.gif"",""img/Fire_Down_Distractor.gif"",""img/Fire_Down_Distractor.gif"",""img/Fire_Down_Distractor.gif"",""img/Fire_Down_Distractor.gif"",""img/Fire_Down_Distractor.gif"",""img/Fire_Down_Distractor.gif"",""img/Fire_Down_Distractor.gif"",""img/Fire_Down_Distractor.gif"",""img/Fire_Down_Distractor.gif"",""img/Fire_Down_Distractor.gif"",""img/Fire_Down_Distractor.gif""]","8","targetUp_distractorsDown"
"","","","","","html-keyboard-response","148","322793","0.0-14.0-0.0-0.67","5fbb42988a2ddbc42227e890","619531dcf66c91622fa1b861","619595b5fe19df9936f739a0","null","","null","","","","","main_T1_ITI","","","","",""
"","","","","","visual-search-circle","149","325127","0.0-14.0-0.0-1.67","5fbb42988a2ddbc42227e890","619531dcf66c91622fa1b861","619595b5fe19df9936f739a0","1319","","s","true","[[237,6],[6,362],[362,593],[593,237]]","false","4","main_T2_Trial","s","img/Fire_Down_Target.gif","[""img/Fire_Up_Distractor.gif"",""img/Fire_Up_Distractor.gif"",""img/Fire_Up_Distractor.gif"",""img/Fire_Up_Distractor.gif"",""img/Fire_Up_Distractor.gif"",""img/Fire_Up_Distractor.gif"",""img/Fire_Up_Distractor.gif"",""img/Fire_Up_Distractor.gif"",""img/Fire_Up_Distractor.gif"",""img/Fire_Up_Distractor.gif"",""img/Fire_Up_Distractor.gif"",""img/Fire_Up_Distractor.gif""]","4","targetDown_distractorsUp"
"","","","","","html-keyboard-response","150","325129","0.0-14.0-0.0-0.68","5fbb42988a2ddbc42227e890","619531dcf66c91622fa1b861","619595b5fe19df9936f739a0","null","","null","","","","","main_T1_ITI","","","","",""
"","","","","","visual-search-circle","151","327188","0.0-14.0-0.0-1.68","5fbb42988a2ddbc42227e890","619531dcf66c91622fa1b861","619595b5fe19df9936f739a0","1056","","s","true","[[515,91],[305,0],[91,84],[0,294],[84,508],[294,599],[508,515],[599,305]]","false","8","main_T2_Trial","s","img/Fire_Up_Target.gif","[""img/Fire_Down_Distractor.gif"",""img/Fire_Down_Distractor.gif"",""img/Fire_Down_Distractor.gif"",""img/Fire_Down_Distractor.gif"",""img/Fire_Down_Distractor.gif"",""img/Fire_Down_Distractor.gif"",""img/Fire_Down_Distractor.gif"",""img/Fire_Down_Distractor.gif"",""img/Fire_Down_Distractor.gif"",""img/Fire_Down_Distractor.gif"",""img/Fire_Down_Distractor.gif"",""img/Fire_Down_Distractor.gif""]","8","targetUp_distractorsDown"
"","","","","","html-keyboard-response","152","327188","0.0-14.0-0.0-0.69","5fbb42988a2ddbc42227e890","619531dcf66c91622fa1b861","619595b5fe19df9936f739a0","null","","null","","","","","main_T1_ITI","","","","",""
"","","","","","visual-search-circle","153","329189","0.0-14.0-0.0-1.69","5fbb42988a2ddbc42227e890","619531dcf66c91622fa1b861","619595b5fe19df9936f739a0","997","","s","true","[[192,580],[488,533],[596,253],[407,19],[111,66],[3,346]]","false","6","main_T2_Trial","s","img/Fire_Up_Target.gif","[""img/Fire_Down_Distractor.gif"",""img/Fire_Down_Distractor.gif"",""img/Fire_Down_Distractor.gif"",""img/Fire_Down_Distractor.gif"",""img/Fire_Down_Distractor.gif"",""img/Fire_Down_Distractor.gif"",""img/Fire_Down_Distractor.gif"",""img/Fire_Down_Distractor.gif"",""img/Fire_Down_Distractor.gif"",""img/Fire_Down_Distractor.gif"",""img/Fire_Down_Distractor.gif"",""img/Fire_Down_Distractor.gif""]","6","targetUp_distractorsDown"
"","","","","","html-keyboard-response","154","329189","0.0-14.0-0.0-0.70","5fbb42988a2ddbc42227e890","619531dcf66c91622fa1b861","619595b5fe19df9936f739a0","null","","null","","","","","main_T1_ITI","","","","",""
"","","","","","visual-search-circle","155","330927","0.0-14.0-0.0-1.70","5fbb42988a2ddbc42227e890","619531dcf66c91622fa1b861","619595b5fe19df9936f739a0","734","","d","true","[[515,508],[597,261],[455,43],[195,18],[15,205],[48,464],[271,598]]","true","7","main_T2_Trial","d","img/Fire_Up_Target.gif","[""img/Fire_Down_Distractor.gif"",""img/Fire_Down_Distractor.gif"",""img/Fire_Down_Distractor.gif"",""img/Fire_Down_Distractor.gif"",""img/Fire_Down_Distractor.gif"",""img/Fire_Down_Distractor.gif"",""img/Fire_Down_Distractor.gif"",""img/Fire_Down_Distractor.gif"",""img/Fire_Down_Distractor.gif"",""img/Fire_Down_Distractor.gif"",""img/Fire_Down_Distractor.gif"",""img/Fire_Down_Distractor.gif""]","7","targetUp_distractorsDown"
"","","","","","html-keyboard-response","156","330927","0.0-14.0-0.0-0.71","5fbb42988a2ddbc42227e890","619531dcf66c91622fa1b861","619595b5fe19df9936f739a0","null","","null","","","","","main_T1_ITI","","","","",""
"","","","","","visual-search-circle","157","332821","0.0-14.0-0.0-1.71","5fbb42988a2ddbc42227e890","619531dcf66c91622fa1b861","619595b5fe19df9936f739a0","878","","s","true","[[154,37],[0,294],[145,557],[445,562],[599,305],[454,42]]","false","6","main_T2_Trial","s","img/Fire_Down_Target.gif","[""img/Fire_Up_Distractor.gif"",""img/Fire_Up_Distractor.gif"",""img/Fire_Up_Distractor.gif"",""img/Fire_Up_Distractor.gif"",""img/Fire_Up_Distractor.gif"",""img/Fire_Up_Distractor.gif"",""img/Fire_Up_Distractor.gif"",""img/Fire_Up_Distractor.gif"",""img/Fire_Up_Distractor.gif"",""img/Fire_Up_Distractor.gif"",""img/Fire_Up_Distractor.gif"",""img/Fire_Up_Distractor.gif""]","6","targetDown_distractorsUp"
"","","","","","html-keyboard-response","158","332822","0.0-14.0-0.0-0.72","5fbb42988a2ddbc42227e890","619531dcf66c91622fa1b861","619595b5fe19df9936f739a0","null","","null","","","","","main_T1_ITI","","","","",""
"","","","","","visual-search-circle","159","334650","0.0-14.0-0.0-1.72","5fbb42988a2ddbc42227e890","619531dcf66c91622fa1b861","619595b5fe19df9936f739a0","820","","s","true","[[73,103],[42,454],[367,592],[598,326],[417,23]]","false","5","main_T2_Trial","s","img/Fire_Down_Target.gif","[""img/Fire_Up_Distractor.gif"",""img/Fire_Up_Distractor.gif"",""img/Fire_Up_Distractor.gif"",""img/Fire_Up_Distractor.gif"",""img/Fire_Up_Distractor.gif"",""img/Fire_Up_Distractor.gif"",""img/Fire_Up_Distractor.gif"",""img/Fire_Up_Distractor.gif"",""img/Fire_Up_Distractor.gif"",""img/Fire_Up_Distractor.gif"",""img/Fire_Up_Distractor.gif"",""img/Fire_Up_Distractor.gif""]","5","targetDown_distractorsUp"
"","","","","","html-keyboard-response","160","334650","0.0-14.0-0.0-0.73","5fbb42988a2ddbc42227e890","619531dcf66c91622fa1b861","619595b5fe19df9936f739a0","null","","null","","","","","main_T1_ITI","","","","",""
"","","","","","visual-search-circle","161","336302","0.0-14.0-0.0-1.73","5fbb42988a2ddbc42227e890","619531dcf66c91622fa1b861","619595b5fe19df9936f739a0","640","","d","true","[[119,539],[341,597],[539,480],[597,258],[480,60],[258,2],[60,119],[2,341]]","true","8","main_T2_Trial","d","img/Fire_Up_Target.gif","[""img/Fire_Down_Distractor.gif"",""img/Fire_Down_Distractor.gif"",""img/Fire_Down_Distractor.gif"",""img/Fire_Down_Distractor.gif"",""img/Fire_Down_Distractor.gif"",""img/Fire_Down_Distractor.gif"",""img/Fire_Down_Distractor.gif"",""img/Fire_Down_Distractor.gif"",""img/Fire_Down_Distractor.gif"",""img/Fire_Down_Distractor.gif"",""img/Fire_Down_Distractor.gif"",""img/Fire_Down_Distractor.gif""]","8","targetUp_distractorsDown"
"","","","","","html-keyboard-response","162","336302","0.0-14.0-0.0-0.74","5fbb42988a2ddbc42227e890","619531dcf66c91622fa1b861","619595b5fe19df9936f739a0","null","","null","","","","","main_T1_ITI","","","","",""
"","","","","","visual-search-circle","163","338106","0.0-14.0-0.0-1.74","5fbb42988a2ddbc42227e890","619531dcf66c91622fa1b861","619595b5fe19df9936f739a0","793","","d","true","[[564,440],[515,91],[168,30],[2,341],[247,595]]","true","5","main_T2_Trial","d","img/Fire_Down_Target.gif","[""img/Fire_Up_Distractor.gif"",""img/Fire_Up_Distractor.gif"",""img/Fire_Up_Distractor.gif"",""img/Fire_Up_Distractor.gif"",""img/Fire_Up_Distractor.gif"",""img/Fire_Up_Distractor.gif"",""img/Fire_Up_Distractor.gif"",""img/Fire_Up_Distractor.gif"",""img/Fire_Up_Distractor.gif"",""img/Fire_Up_Distractor.gif"",""img/Fire_Up_Distractor.gif"",""img/Fire_Up_Distractor.gif""]","5","targetDown_distractorsUp"
"","","","","","html-keyboard-response","164","338106","0.0-14.0-0.0-0.75","5fbb42988a2ddbc42227e890","619531dcf66c91622fa1b861","619595b5fe19df9936f739a0","null","","null","","","","","main_T1_ITI","","","","",""
"","","","","","visual-search-circle","165","339990","0.0-14.0-0.0-1.75","5fbb42988a2ddbc42227e890","619531dcf66c91622fa1b861","619595b5fe19df9936f739a0","871","","d","false","[[80,95],[95,519],[519,504],[504,80]]","false","4","main_T2_Trial","s","img/Fire_Up_Target.gif","[""img/Fire_Down_Distractor.gif"",""img/Fire_Down_Distractor.gif"",""img/Fire_Down_Distractor.gif"",""img/Fire_Down_Distractor.gif"",""img/Fire_Down_Distractor.gif"",""img/Fire_Down_Distractor.gif"",""img/Fire_Down_Distractor.gif"",""img/Fire_Down_Distractor.gif"",""img/Fire_Down_Distractor.gif"",""img/Fire_Down_Distractor.gif"",""img/Fire_Down_Distractor.gif"",""img/Fire_Down_Distractor.gif""]","4","targetUp_distractorsDown"
"","","","","","html-keyboard-response","166","339990","0.0-14.0-0.0-0.76","5fbb42988a2ddbc42227e890","619531dcf66c91622fa1b861","619595b5fe19df9936f739a0","null","","null","","","","","main_T1_ITI","","","","",""
"","","","","","visual-search-circle","167","343737","0.0-14.0-0.0-1.76","5fbb42988a2ddbc42227e890","619531dcf66c91622fa1b861","619595b5fe19df9936f739a0","2739","","s","true","[[519,95],[276,0],[51,131],[13,389],[191,579],[450,559],[596,343]]","false","7","main_T2_Trial","s","img/Fire_Up_Target.gif","[""img/Fire_Down_Distractor.gif"",""img/Fire_Down_Distractor.gif"",""img/Fire_Down_Distractor.gif"",""img/Fire_Down_Distractor.gif"",""img/Fire_Down_Distractor.gif"",""img/Fire_Down_Distractor.gif"",""img/Fire_Down_Distractor.gif"",""img/Fire_Down_Distractor.gif"",""img/Fire_Down_Distractor.gif"",""img/Fire_Down_Distractor.gif"",""img/Fire_Down_Distractor.gif"",""img/Fire_Down_Distractor.gif""]","7","targetUp_distractorsDown"
"","","","","","html-keyboard-response","168","343737","0.0-14.0-0.0-0.77","5fbb42988a2ddbc42227e890","619531dcf66c91622fa1b861","619595b5fe19df9936f739a0","null","","null","","","","","main_T1_ITI","","","","",""
"","","","","","visual-search-circle","169","346892","0.0-14.0-0.0-1.77","5fbb42988a2ddbc42227e890","619531dcf66c91622fa1b861","619595b5fe19df9936f739a0","2146","","s","true","[[111,66],[0,302],[114,535],[368,591],[571,428],[569,167],[364,7]]","false","7","main_T2_Trial","s","img/Fire_Down_Target.gif","[""img/Fire_Up_Distractor.gif"",""img/Fire_Up_Distractor.gif"",""img/Fire_Up_Distractor.gif"",""img/Fire_Up_Distractor.gif"",""img/Fire_Up_Distractor.gif"",""img/Fire_Up_Distractor.gif"",""img/Fire_Up_Distractor.gif"",""img/Fire_Up_Distractor.gif"",""img/Fire_Up_Distractor.gif"",""img/Fire_Up_Distractor.gif"",""img/Fire_Up_Distractor.gif"",""img/Fire_Up_Distractor.gif""]","7","targetDown_distractorsUp"
"","","","","","html-keyboard-response","170","346893","0.0-14.0-0.0-0.78","5fbb42988a2ddbc42227e890","619531dcf66c91622fa1b861","619595b5fe19df9936f739a0","null","","null","","","","","main_T1_ITI","","","","",""
"","","","","","visual-search-circle","171","350977","0.0-14.0-0.0-1.78","5fbb42988a2ddbc42227e890","619531dcf66c91622fa1b861","619595b5fe19df9936f739a0","3077","","d","false","[[258,2],[4,247],[159,564],[508,515],[569,168]]","false","5","main_T2_Trial","s","img/Fire_Down_Target.gif","[""img/Fire_Up_Distractor.gif"",""img/Fire_Up_Distractor.gif"",""img/Fire_Up_Distractor.gif"",""img/Fire_Up_Distractor.gif"",""img/Fire_Up_Distractor.gif"",""img/Fire_Up_Distractor.gif"",""img/Fire_Up_Distractor.gif"",""img/Fire_Up_Distractor.gif"",""img/Fire_Up_Distractor.gif"",""img/Fire_Up_Distractor.gif"",""img/Fire_Up_Distractor.gif"",""img/Fire_Up_Distractor.gif""]","5","targetDown_distractorsUp"
"","","","","","html-keyboard-response","172","352278","0.0-14.0-0.0-0.79","5fbb42988a2ddbc42227e890","619531dcf66c91622fa1b861","619595b5fe19df9936f739a0","1302","Wow! You've completed 80 out of 160 trials! </p> <p>  </p><p> Take a quick break, then press any key when you're ready to continue."," ","","","","","main_T1_ITI","","","","",""
"","","","","","visual-search-circle","173","354308","0.0-14.0-0.0-1.79","5fbb42988a2ddbc42227e890","619531dcf66c91622fa1b861","619595b5fe19df9936f739a0","1024","","s","true","[[19,407],[177,574],[407,580],[574,422],[580,192],[422,25],[192,19],[25,177]]","false","8","main_T2_Trial","s","img/Fire_Up_Target.gif","[""img/Fire_Down_Distractor.gif"",""img/Fire_Down_Distractor.gif"",""img/Fire_Down_Distractor.gif"",""img/Fire_Down_Distractor.gif"",""img/Fire_Down_Distractor.gif"",""img/Fire_Down_Distractor.gif"",""img/Fire_Down_Distractor.gif"",""img/Fire_Down_Distractor.gif"",""img/Fire_Down_Distractor.gif"",""img/Fire_Down_Distractor.gif"",""img/Fire_Down_Distractor.gif"",""img/Fire_Down_Distractor.gif""]","8","targetUp_distractorsDown"
"","","","","","html-keyboard-response","174","354308","0.0-14.0-0.0-0.80","5fbb42988a2ddbc42227e890","619531dcf66c91622fa1b861","619595b5fe19df9936f739a0","null","","null","","","","","main_T1_ITI","","","","",""
"","","","","","visual-search-circle","175","356346","0.0-14.0-0.0-1.80","5fbb42988a2ddbc42227e890","619531dcf66c91622fa1b861","619595b5fe19df9936f739a0","1024","","s","true","[[212,13],[7,232],[95,519],[387,586],[592,367],[504,80]]","false","6","main_T2_Trial","s","img/Fire_Down_Target.gif","[""img/Fire_Up_Distractor.gif"",""img/Fire_Up_Distractor.gif"",""img/Fire_Up_Distractor.gif"",""img/Fire_Up_Distractor.gif"",""img/Fire_Up_Distractor.gif"",""img/Fire_Up_Distractor.gif"",""img/Fire_Up_Distractor.gif"",""img/Fire_Up_Distractor.gif"",""img/Fire_Up_Distractor.gif"",""img/Fire_Up_Distractor.gif"",""img/Fire_Up_Distractor.gif"",""img/Fire_Up_Distractor.gif""]","6","targetDown_distractorsUp"
"","","","","","html-keyboard-response","176","356346","0.0-14.0-0.0-0.81","5fbb42988a2ddbc42227e890","619531dcf66c91622fa1b861","619595b5fe19df9936f739a0","null","","null","","","","","main_T1_ITI","","","","",""
"","","","","","visual-search-circle","177","360835","0.0-14.0-0.0-1.81","5fbb42988a2ddbc42227e890","619531dcf66c91622fa1b861","619595b5fe19df9936f739a0","3487","","d","true","[[571,426],[504,80],[154,37],[5,357],[263,597]]","true","5","main_T2_Trial","d","img/Fire_Down_Target.gif","[""img/Fire_Up_Distractor.gif"",""img/Fire_Up_Distractor.gif"",""img/Fire_Up_Distractor.gif"",""img/Fire_Up_Distractor.gif"",""img/Fire_Up_Distractor.gif"",""img/Fire_Up_Distractor.gif"",""img/Fire_Up_Distractor.gif"",""img/Fire_Up_Distractor.gif"",""img/Fire_Up_Distractor.gif"",""img/Fire_Up_Distractor.gif"",""img/Fire_Up_Distractor.gif"",""img/Fire_Up_Distractor.gif""]","5","targetDown_distractorsUp"
"","","","","","html-keyboard-response","178","360835","0.0-14.0-0.0-0.82","5fbb42988a2ddbc42227e890","619531dcf66c91622fa1b861","619595b5fe19df9936f739a0","null","","null","","","","","main_T1_ITI","","","","",""
"","","","","","visual-search-circle","179","367867","0.0-14.0-0.0-1.82","5fbb42988a2ddbc42227e890","619531dcf66c91622fa1b861","619595b5fe19df9936f739a0","6022","","s","true","[[217,11],[0,289],[197,581],[536,484],[548,132]]","false","5","main_T2_Trial","s","img/Fire_Up_Target.gif","[""img/Fire_Down_Distractor.gif"",""img/Fire_Down_Distractor.gif"",""img/Fire_Down_Distractor.gif"",""img/Fire_Down_Distractor.gif"",""img/Fire_Down_Distractor.gif"",""img/Fire_Down_Distractor.gif"",""img/Fire_Down_Distractor.gif"",""img/Fire_Down_Distractor.gif"",""img/Fire_Down_Distractor.gif"",""img/Fire_Down_Distractor.gif"",""img/Fire_Down_Distractor.gif"",""img/Fire_Down_Distractor.gif""]","5","targetUp_distractorsDown"
"","","","","","html-keyboard-response","180","367867","0.0-14.0-0.0-0.83","5fbb42988a2ddbc42227e890","619531dcf66c91622fa1b861","619595b5fe19df9936f739a0","null","","null","","","","","main_T1_ITI","","","","",""
"","","","","","visual-search-circle","181","370090","0.0-14.0-0.0-1.83","5fbb42988a2ddbc42227e890","619531dcf66c91622fa1b861","619595b5fe19df9936f739a0","1212","","s","true","[[598,268],[268,1],[1,331],[331,598]]","false","4","main_T2_Trial","s","img/Fire_Down_Target.gif","[""img/Fire_Up_Distractor.gif"",""img/Fire_Up_Distractor.gif"",""img/Fire_Up_Distractor.gif"",""img/Fire_Up_Distractor.gif"",""img/Fire_Up_Distractor.gif"",""img/Fire_Up_Distractor.gif"",""img/Fire_Up_Distractor.gif"",""img/Fire_Up_Distractor.gif"",""img/Fire_Up_Distractor.gif"",""img/Fire_Up_Distractor.gif"",""img/Fire_Up_Distractor.gif"",""img/Fire_Up_Distractor.gif""]","4","targetDown_distractorsUp"
"","","","","","html-keyboard-response","182","370090","0.0-14.0-0.0-0.84","5fbb42988a2ddbc42227e890","619531dcf66c91622fa1b861","619595b5fe19df9936f739a0","null","","null","","","","","main_T1_ITI","","","","",""
"","","","","","visual-search-circle","183","371919","0.0-14.0-0.0-1.84","5fbb42988a2ddbc42227e890","619531dcf66c91622fa1b861","619595b5fe19df9936f739a0","820","","s","true","[[141,554],[399,582],[583,398],[553,139],[332,1],[87,88],[1,334]]","false","7","main_T2_Trial","s","img/Fire_Up_Target.gif","[""img/Fire_Down_Distractor.gif"",""img/Fire_Down_Distractor.gif"",""img/Fire_Down_Distractor.gif"",""img/Fire_Down_Distractor.gif"",""img/Fire_Down_Distractor.gif"",""img/Fire_Down_Distractor.gif"",""img/Fire_Down_Distractor.gif"",""img/Fire_Down_Distractor.gif"",""img/Fire_Down_Distractor.gif"",""img/Fire_Down_Distractor.gif"",""img/Fire_Down_Distractor.gif"",""img/Fire_Down_Distractor.gif""]","7","targetUp_distractorsDown"
"","","","","","html-keyboard-response","184","371919","0.0-14.0-0.0-0.85","5fbb42988a2ddbc42227e890","619531dcf66c91622fa1b861","619595b5fe19df9936f739a0","null","","null","","","","","main_T1_ITI","","","","",""
"","","","","","visual-search-circle","185","373859","0.0-14.0-0.0-1.85","5fbb42988a2ddbc42227e890","619531dcf66c91622fa1b861","619595b5fe19df9936f739a0","932","","s","true","[[103,73],[73,496],[496,526],[526,103]]","false","4","main_T2_Trial","s","img/Fire_Up_Target.gif","[""img/Fire_Down_Distractor.gif"",""img/Fire_Down_Distractor.gif"",""img/Fire_Down_Distractor.gif"",""img/Fire_Down_Distractor.gif"",""img/Fire_Down_Distractor.gif"",""img/Fire_Down_Distractor.gif"",""img/Fire_Down_Distractor.gif"",""img/Fire_Down_Distractor.gif"",""img/Fire_Down_Distractor.gif"",""img/Fire_Down_Distractor.gif"",""img/Fire_Down_Distractor.gif"",""img/Fire_Down_Distractor.gif""]","4","targetUp_distractorsDown"
"","","","","","html-keyboard-response","186","373859","0.0-14.0-0.0-0.86","5fbb42988a2ddbc42227e890","619531dcf66c91622fa1b861","619595b5fe19df9936f739a0","null","","null","","","","","main_T1_ITI","","","","",""
"","","","","","visual-search-circle","187","375710","0.0-14.0-0.0-1.86","5fbb42988a2ddbc42227e890","619531dcf66c91622fa1b861","619595b5fe19df9936f739a0","837","","s","true","[[23,417],[326,598],[592,367],[454,42],[103,73]]","false","5","main_T2_Trial","s","img/Fire_Up_Target.gif","[""img/Fire_Down_Distractor.gif"",""img/Fire_Down_Distractor.gif"",""img/Fire_Down_Distractor.gif"",""img/Fire_Down_Distractor.gif"",""img/Fire_Down_Distractor.gif"",""img/Fire_Down_Distractor.gif"",""img/Fire_Down_Distractor.gif"",""img/Fire_Down_Distractor.gif"",""img/Fire_Down_Distractor.gif"",""img/Fire_Down_Distractor.gif"",""img/Fire_Down_Distractor.gif"",""img/Fire_Down_Distractor.gif""]","5","targetUp_distractorsDown"
"","","","","","html-keyboard-response","188","375711","0.0-14.0-0.0-0.87","5fbb42988a2ddbc42227e890","619531dcf66c91622fa1b861","619595b5fe19df9936f739a0","null","","null","","","","","main_T1_ITI","","","","",""
"","","","","","visual-search-circle","189","377714","0.0-14.0-0.0-1.87","5fbb42988a2ddbc42227e890","619531dcf66c91622fa1b861","619595b5fe19df9936f739a0","1000","","d","false","[[80,95],[13,387],[232,592],[519,504],[586,212],[367,7]]","false","6","main_T2_Trial","s","img/Fire_Up_Target.gif","[""img/Fire_Down_Distractor.gif"",""img/Fire_Down_Distractor.gif"",""img/Fire_Down_Distractor.gif"",""img/Fire_Down_Distractor.gif"",""img/Fire_Down_Distractor.gif"",""img/Fire_Down_Distractor.gif"",""img/Fire_Down_Distractor.gif"",""img/Fire_Down_Distractor.gif"",""img/Fire_Down_Distractor.gif"",""img/Fire_Down_Distractor.gif"",""img/Fire_Down_Distractor.gif"",""img/Fire_Down_Distractor.gif""]","6","targetUp_distractorsDown"
"","","","","","html-keyboard-response","190","377714","0.0-14.0-0.0-0.88","5fbb42988a2ddbc42227e890","619531dcf66c91622fa1b861","619595b5fe19df9936f739a0","null","","null","","","","","main_T1_ITI","","","","",""
"","","","","","visual-search-circle","191","381747","0.0-14.0-0.0-1.88","5fbb42988a2ddbc42227e890","619531dcf66c91622fa1b861","619595b5fe19df9936f739a0","3031","","s","false","[[2,341],[119,539],[341,597],[539,480],[597,258],[480,60],[258,2],[60,119]]","true","8","main_T2_Trial","d","img/Fire_Up_Target.gif","[""img/Fire_Down_Distractor.gif"",""img/Fire_Down_Distractor.gif"",""img/Fire_Down_Distractor.gif"",""img/Fire_Down_Distractor.gif"",""img/Fire_Down_Distractor.gif"",""img/Fire_Down_Distractor.gif"",""img/Fire_Down_Distractor.gif"",""img/Fire_Down_Distractor.gif"",""img/Fire_Down_Distractor.gif"",""img/Fire_Down_Distractor.gif"",""img/Fire_Down_Distractor.gif"",""img/Fire_Down_Distractor.gif""]","8","targetUp_distractorsDown"
"","","","","","html-keyboard-response","192","381747","0.0-14.0-0.0-0.89","5fbb42988a2ddbc42227e890","619531dcf66c91622fa1b861","619595b5fe19df9936f739a0","null","","null","","","","","main_T1_ITI","","","","",""
"","","","","","visual-search-circle","193","383725","0.0-14.0-0.0-1.89","5fbb42988a2ddbc42227e890","619531dcf66c91622fa1b861","619595b5fe19df9936f739a0","973","","s","true","[[136,48],[0,315],[163,567],[463,551],[599,284],[436,32]]","false","6","main_T2_Trial","s","img/Fire_Up_Target.gif","[""img/Fire_Down_Distractor.gif"",""img/Fire_Down_Distractor.gif"",""img/Fire_Down_Distractor.gif"",""img/Fire_Down_Distractor.gif"",""img/Fire_Down_Distractor.gif"",""img/Fire_Down_Distractor.gif"",""img/Fire_Down_Distractor.gif"",""img/Fire_Down_Distractor.gif"",""img/Fire_Down_Distractor.gif"",""img/Fire_Down_Distractor.gif"",""img/Fire_Down_Distractor.gif"",""img/Fire_Down_Distractor.gif""]","6","targetUp_distractorsDown"
"","","","","","html-keyboard-response","194","383725","0.0-14.0-0.0-0.90","5fbb42988a2ddbc42227e890","619531dcf66c91622fa1b861","619595b5fe19df9936f739a0","null","","null","","","","","main_T1_ITI","","","","",""
"","","","","","visual-search-circle","195","385880","0.0-14.0-0.0-1.90","5fbb42988a2ddbc42227e890","619531dcf66c91622fa1b861","619595b5fe19df9936f739a0","1141","","s","true","[[504,80],[256,3],[40,149],[20,408],[210,586],[468,548],[599,323]]","false","7","main_T2_Trial","s","img/Fire_Up_Target.gif","[""img/Fire_Down_Distractor.gif"",""img/Fire_Down_Distractor.gif"",""img/Fire_Down_Distractor.gif"",""img/Fire_Down_Distractor.gif"",""img/Fire_Down_Distractor.gif"",""img/Fire_Down_Distractor.gif"",""img/Fire_Down_Distractor.gif"",""img/Fire_Down_Distractor.gif"",""img/Fire_Down_Distractor.gif"",""img/Fire_Down_Distractor.gif"",""img/Fire_Down_Distractor.gif"",""img/Fire_Down_Distractor.gif""]","7","targetUp_distractorsDown"
"","","","","","html-keyboard-response","196","385880","0.0-14.0-0.0-0.91","5fbb42988a2ddbc42227e890","619531dcf66c91622fa1b861","619595b5fe19df9936f739a0","null","","null","","","","","main_T1_ITI","","","","",""
"","","","","","visual-search-circle","197","387533","0.0-14.0-0.0-1.91","5fbb42988a2ddbc42227e890","619531dcf66c91622fa1b861","619595b5fe19df9936f739a0","650","","s","true","[[141,45],[8,372],[279,599],[578,412],[492,70]]","false","5","main_T2_Trial","s","img/Fire_Down_Target.gif","[""img/Fire_Up_Distractor.gif"",""img/Fire_Up_Distractor.gif"",""img/Fire_Up_Distractor.gif"",""img/Fire_Up_Distractor.gif"",""img/Fire_Up_Distractor.gif"",""img/Fire_Up_Distractor.gif"",""img/Fire_Up_Distractor.gif"",""img/Fire_Up_Distractor.gif"",""img/Fire_Up_Distractor.gif"",""img/Fire_Up_Distractor.gif"",""img/Fire_Up_Distractor.gif"",""img/Fire_Up_Distractor.gif""]","5","targetDown_distractorsUp"
"","","","","","html-keyboard-response","198","387533","0.0-14.0-0.0-0.92","5fbb42988a2ddbc42227e890","619531dcf66c91622fa1b861","619595b5fe19df9936f739a0","null","","null","","","","","main_T1_ITI","","","","",""
"","","","","","visual-search-circle","199","389291","0.0-14.0-0.0-1.92","5fbb42988a2ddbc42227e890","619531dcf66c91622fa1b861","619595b5fe19df9936f739a0","753","","d","true","[[445,562],[595,349],[523,99],[282,0],[55,126],[11,383],[185,577]]","true","7","main_T2_Trial","d","img/Fire_Down_Target.gif","[""img/Fire_Up_Distractor.gif"",""img/Fire_Up_Distractor.gif"",""img/Fire_Up_Distractor.gif"",""img/Fire_Up_Distractor.gif"",""img/Fire_Up_Distractor.gif"",""img/Fire_Up_Distractor.gif"",""img/Fire_Up_Distractor.gif"",""img/Fire_Up_Distractor.gif"",""img/Fire_Up_Distractor.gif"",""img/Fire_Up_Distractor.gif"",""img/Fire_Up_Distractor.gif"",""img/Fire_Up_Distractor.gif""]","7","targetDown_distractorsUp"
"","","","","","html-keyboard-response","200","389291","0.0-14.0-0.0-0.93","5fbb42988a2ddbc42227e890","619531dcf66c91622fa1b861","619595b5fe19df9936f739a0","null","","null","","","","","main_T1_ITI","","","","",""
"","","","","","visual-search-circle","201","391048","0.0-14.0-0.0-1.93","5fbb42988a2ddbc42227e890","619531dcf66c91622fa1b861","619595b5fe19df9936f739a0","743","","s","true","[[412,21],[70,107],[45,458],[372,591],[599,320]]","false","5","main_T2_Trial","s","img/Fire_Down_Target.gif","[""img/Fire_Up_Distractor.gif"",""img/Fire_Up_Distractor.gif"",""img/Fire_Up_Distractor.gif"",""img/Fire_Up_Distractor.gif"",""img/Fire_Up_Distractor.gif"",""img/Fire_Up_Distractor.gif"",""img/Fire_Up_Distractor.gif"",""img/Fire_Up_Distractor.gif"",""img/Fire_Up_Distractor.gif"",""img/Fire_Up_Distractor.gif"",""img/Fire_Up_Distractor.gif"",""img/Fire_Up_Distractor.gif""]","5","targetDown_distractorsUp"
"","","","","","html-keyboard-response","202","391048","0.0-14.0-0.0-0.94","5fbb42988a2ddbc42227e890","619531dcf66c91622fa1b861","619595b5fe19df9936f739a0","null","","null","","","","","main_T1_ITI","","","","",""
"","","","","","visual-search-circle","203","393117","0.0-14.0-0.0-1.94","5fbb42988a2ddbc42227e890","619531dcf66c91622fa1b861","619595b5fe19df9936f739a0","1058","","s","true","[[548,467],[467,51],[51,132],[132,548]]","false","4","main_T2_Trial","s","img/Fire_Down_Target.gif","[""img/Fire_Up_Distractor.gif"",""img/Fire_Up_Distractor.gif"",""img/Fire_Up_Distractor.gif"",""img/Fire_Up_Distractor.gif"",""img/Fire_Up_Distractor.gif"",""img/Fire_Up_Distractor.gif"",""img/Fire_Up_Distractor.gif"",""img/Fire_Up_Distractor.gif"",""img/Fire_Up_Distractor.gif"",""img/Fire_Up_Distractor.gif"",""img/Fire_Up_Distractor.gif"",""img/Fire_Up_Distractor.gif""]","4","targetDown_distractorsUp"
"","","","","","html-keyboard-response","204","393117","0.0-14.0-0.0-0.95","5fbb42988a2ddbc42227e890","619531dcf66c91622fa1b861","619595b5fe19df9936f739a0","null","","null","","","","","main_T1_ITI","","","","",""
"","","","","","visual-search-circle","205","394967","0.0-14.0-0.0-1.95","5fbb42988a2ddbc42227e890","619531dcf66c91622fa1b861","619595b5fe19df9936f739a0","833","","s","false","[[596,346],[488,66],[192,19],[3,253],[111,533],[407,580]]","true","6","main_T2_Trial","d","img/Fire_Down_Target.gif","[""img/Fire_Up_Distractor.gif"",""img/Fire_Up_Distractor.gif"",""img/Fire_Up_Distractor.gif"",""img/Fire_Up_Distractor.gif"",""img/Fire_Up_Distractor.gif"",""img/Fire_Up_Distractor.gif"",""img/Fire_Up_Distractor.gif"",""img/Fire_Up_Distractor.gif"",""img/Fire_Up_Distractor.gif"",""img/Fire_Up_Distractor.gif"",""img/Fire_Up_Distractor.gif"",""img/Fire_Up_Distractor.gif""]","6","targetDown_distractorsUp"
"","","","","","html-keyboard-response","206","394967","0.0-14.0-0.0-0.96","5fbb42988a2ddbc42227e890","619531dcf66c91622fa1b861","619595b5fe19df9936f739a0","null","","null","","","","","main_T1_ITI","","","","",""
"","","","","","visual-search-circle","207","396950","0.0-14.0-0.0-1.96","5fbb42988a2ddbc42227e890","619531dcf66c91622fa1b861","619595b5fe19df9936f739a0","969","","s","true","[[99,77],[0,284],[77,500],[284,599],[500,522],[599,315],[522,99],[315,0]]","false","8","main_T2_Trial","s","img/Fire_Up_Target.gif","[""img/Fire_Down_Distractor.gif"",""img/Fire_Down_Distractor.gif"",""img/Fire_Down_Distractor.gif"",""img/Fire_Down_Distractor.gif"",""img/Fire_Down_Distractor.gif"",""img/Fire_Down_Distractor.gif"",""img/Fire_Down_Distractor.gif"",""img/Fire_Down_Distractor.gif"",""img/Fire_Down_Distractor.gif"",""img/Fire_Down_Distractor.gif"",""img/Fire_Down_Distractor.gif"",""img/Fire_Down_Distractor.gif""]","8","targetUp_distractorsDown"
"","","","","","html-keyboard-response","208","396950","0.0-14.0-0.0-0.97","5fbb42988a2ddbc42227e890","619531dcf66c91622fa1b861","619595b5fe19df9936f739a0","null","","null","","","","","main_T1_ITI","","","","",""
"","","","","","visual-search-circle","209","398724","0.0-14.0-0.0-1.97","5fbb42988a2ddbc42227e890","619531dcf66c91622fa1b861","619595b5fe19df9936f739a0","772","","s","true","[[84,508],[431,569],[597,258],[352,4],[35,159]]","false","5","main_T2_Trial","s","img/Fire_Up_Target.gif","[""img/Fire_Down_Distractor.gif"",""img/Fire_Down_Distractor.gif"",""img/Fire_Down_Distractor.gif"",""img/Fire_Down_Distractor.gif"",""img/Fire_Down_Distractor.gif"",""img/Fire_Down_Distractor.gif"",""img/Fire_Down_Distractor.gif"",""img/Fire_Down_Distractor.gif"",""img/Fire_Down_Distractor.gif"",""img/Fire_Down_Distractor.gif"",""img/Fire_Down_Distractor.gif"",""img/Fire_Down_Distractor.gif""]","5","targetUp_distractorsDown"
"","","","","","html-keyboard-response","210","398724","0.0-14.0-0.0-0.98","5fbb42988a2ddbc42227e890","619531dcf66c91622fa1b861","619595b5fe19df9936f739a0","null","","null","","","","","main_T1_ITI","","","","",""
"","","","","","visual-search-circle","211","400636","0.0-14.0-0.0-1.98","5fbb42988a2ddbc42227e890","619531dcf66c91622fa1b861","619595b5fe19df9936f739a0","899","","d","true","[[222,589],[512,512],[589,222],[377,10],[87,87],[10,377]]","true","6","main_T2_Trial","d","img/Fire_Down_Target.gif","[""img/Fire_Up_Distractor.gif"",""img/Fire_Up_Distractor.gif"",""img/Fire_Up_Distractor.gif"",""img/Fire_Up_Distractor.gif"",""img/Fire_Up_Distractor.gif"",""img/Fire_Up_Distractor.gif"",""img/Fire_Up_Distractor.gif"",""img/Fire_Up_Distractor.gif"",""img/Fire_Up_Distractor.gif"",""img/Fire_Up_Distractor.gif"",""img/Fire_Up_Distractor.gif"",""img/Fire_Up_Distractor.gif""]","6","targetDown_distractorsUp"
"","","","","","html-keyboard-response","212","402252","0.0-14.0-0.0-0.99","5fbb42988a2ddbc42227e890","619531dcf66c91622fa1b861","619595b5fe19df9936f739a0","1616","Wow! You've completed 100 out of 160 trials! </p> <p>  </p><p> Take a quick break, then press any key when you're ready to continue."," ","","","","","main_T1_ITI","","","","",""
"","","","","","visual-search-circle","213","406482","0.0-14.0-0.0-1.99","5fbb42988a2ddbc42227e890","619531dcf66c91622fa1b861","619595b5fe19df9936f739a0","3226","","s","true","[[5,242],[154,562],[504,519],[571,173],[263,2]]","false","5","main_T2_Trial","s","img/Fire_Down_Target.gif","[""img/Fire_Up_Distractor.gif"",""img/Fire_Up_Distractor.gif"",""img/Fire_Up_Distractor.gif"",""img/Fire_Up_Distractor.gif"",""img/Fire_Up_Distractor.gif"",""img/Fire_Up_Distractor.gif"",""img/Fire_Up_Distractor.gif"",""img/Fire_Up_Distractor.gif"",""img/Fire_Up_Distractor.gif"",""img/Fire_Up_Distractor.gif"",""img/Fire_Up_Distractor.gif"",""img/Fire_Up_Distractor.gif""]","5","targetDown_distractorsUp"
"","","","","","html-keyboard-response","214","406482","0.0-14.0-0.0-0.100","5fbb42988a2ddbc42227e890","619531dcf66c91622fa1b861","619595b5fe19df9936f739a0","null","","null","","","","","main_T1_ITI","","","","",""
"","","","","","visual-search-circle","215","408803","0.0-14.0-0.0-1.100","5fbb42988a2ddbc42227e890","619531dcf66c91622fa1b861","619595b5fe19df9936f739a0","1319","","d","true","[[45,141],[141,554],[554,458],[458,45]]","true","4","main_T2_Trial","d","img/Fire_Down_Target.gif","[""img/Fire_Up_Distractor.gif"",""img/Fire_Up_Distractor.gif"",""img/Fire_Up_Distractor.gif"",""img/Fire_Up_Distractor.gif"",""img/Fire_Up_Distractor.gif"",""img/Fire_Up_Distractor.gif"",""img/Fire_Up_Distractor.gif"",""img/Fire_Up_Distractor.gif"",""img/Fire_Up_Distractor.gif"",""img/Fire_Up_Distractor.gif"",""img/Fire_Up_Distractor.gif"",""img/Fire_Up_Distractor.gif""]","4","targetDown_distractorsUp"
"","","","","","html-keyboard-response","216","408803","0.0-14.0-0.0-0.101","5fbb42988a2ddbc42227e890","619531dcf66c91622fa1b861","619595b5fe19df9936f739a0","null","","null","","","","","main_T1_ITI","","","","",""
"","","","","","visual-search-circle","217","411687","0.0-14.0-0.0-1.101","5fbb42988a2ddbc42227e890","619531dcf66c91622fa1b861","619595b5fe19df9936f739a0","1871","","d","true","[[331,598],[574,422],[542,123],[268,1],[25,177],[57,476]]","true","6","main_T2_Trial","d","img/Fire_Up_Target.gif","[""img/Fire_Down_Distractor.gif"",""img/Fire_Down_Distractor.gif"",""img/Fire_Down_Distractor.gif"",""img/Fire_Down_Distractor.gif"",""img/Fire_Down_Distractor.gif"",""img/Fire_Down_Distractor.gif"",""img/Fire_Down_Distractor.gif"",""img/Fire_Down_Distractor.gif"",""img/Fire_Down_Distractor.gif"",""img/Fire_Down_Distractor.gif"",""img/Fire_Down_Distractor.gif"",""img/Fire_Down_Distractor.gif""]","6","targetUp_distractorsDown"
"","","","","","html-keyboard-response","218","411687","0.0-14.0-0.0-0.102","5fbb42988a2ddbc42227e890","619531dcf66c91622fa1b861","619595b5fe19df9936f739a0","null","","null","","","","","main_T1_ITI","","","","",""
