"success","timeout","failed_images","failed_audio","failed_video","trial_type","trial_index","time_elapsed","internal_node_id","subject_id","study_id","session_id","rt","stimulus","response","correct","locations","target_present","set_size","task","correct_response","target","foilCM","setSizeCM","searchCondition"
"true","false","[]","[]","[]","preload","0","55835","0.0-0.0","5fbbf3f438be4c025df6cdd4","619531dcf66c91622fa1b861","61959beacd808f9ab6afc206","","","","","","","","","","","","",""
"true","","","","","fullscreen","1","59666","0.0-1.0","5fbbf3f438be4c025df6cdd4","619531dcf66c91622fa1b861","61959beacd808f9ab6afc206","","","","","","","","","","","","",""
"","","","","","html-keyboard-response","2","70787","0.0-2.0","5fbbf3f438be4c025df6cdd4","619531dcf66c91622fa1b861","61959beacd808f9ab6afc206","11115.699999988079","What a beautiful Thursday to do some awesome science! </p> <p>  </p><p> </p>
    By completing this survey or questionnaire, you are consenting to be in this research study. </p>
    Your participation is voluntary and you can stop at any time.
    <p> [Press any key to continue.] </p>
    
    "," ","","","","","","","","","",""
"","","","","","video-keyboard-response","3","83295","0.0-3.0","5fbbf3f438be4c025df6cdd4","619531dcf66c91622fa1b861","61959beacd808f9ab6afc206","12486.100000023842","[""video/TaskInstructions.mp4""]","audiovolumedown","","","","","","","","","",""
"","","","","","html-keyboard-response","4","93261","0.0-4.0","5fbbf3f438be4c025df6cdd4","619531dcf66c91622fa1b861","61959beacd808f9ab6afc206","9960.899999976158","
    <p>First, we're going to do a few practice trials to make sure you understand the task. You will recieve feedback on each trial. </p>
    <p>[Press any key to begin the familiarization phase.]</p>
    "," ","","","","","","","","","",""
"","","","","","visual-search-circle","5","109957","0.0-5.0-0.0","5fbbf3f438be4c025df6cdd4","619531dcf66c91622fa1b861","61959beacd808f9ab6afc206","15621.399999976158","","s","false","[[23,182],[182,576],[576,417],[417,23]]","true","4","training","d","","","",""
"","","","","","html-keyboard-response","6","117556","0.0-6.0","5fbbf3f438be4c025df6cdd4","619531dcf66c91622fa1b861","61959beacd808f9ab6afc206","7597.5"," <div style='float: center;'><img src='img/feedbackWrong.png'></img> </div> ","d","","","","","","","","","",""
"","","","","","visual-search-circle","7","124960","0.0-7.0-0.0","5fbbf3f438be4c025df6cdd4","619531dcf66c91622fa1b861","61959beacd808f9ab6afc206","6374.599999964237","","s","true","[[310,599],[599,289],[289,0],[0,310]]","false","4","training","s","","","",""
"","","","","","html-keyboard-response","8","128770","0.0-8.0","5fbbf3f438be4c025df6cdd4","619531dcf66c91622fa1b861","61959beacd808f9ab6afc206","3804.800000011921"," <div style='float: center; '><img src='img/feedbackRight.png'></img> </div> ","d","","","","","","","","","",""
"","","","","","visual-search-circle","9","132007","0.0-9.0-0.0","5fbbf3f438be4c025df6cdd4","619531dcf66c91622fa1b861","61959beacd808f9ab6afc206","2218.900000035763","","s","true","[[567,436],[551,136],[284,0],[32,163],[48,463],[315,599]]","false","6","training","s","","","",""
"","","","","","html-keyboard-response","10","133181","0.0-10.0","5fbbf3f438be4c025df6cdd4","619531dcf66c91622fa1b861","61959beacd808f9ab6afc206","1172"," <div style='float: center; '><img src='img/feedbackRight.png'></img> </div> ","s","","","","","","","","","",""
"","","","","","visual-search-circle","11","135562","0.0-11.0-0.0","5fbbf3f438be4c025df6cdd4","619531dcf66c91622fa1b861","61959beacd808f9ab6afc206","1357.5","","d","true","[[11,217],[37,445],[217,588],[445,562],[588,382],[562,154],[382,11],[154,37]]","true","8","training","d","","","",""
"","","","","","html-keyboard-response","12","136415","0.0-12.0","5fbbf3f438be4c025df6cdd4","619531dcf66c91622fa1b861","61959beacd808f9ab6afc206","850.8000000119209"," <div style='float: center; '><img src='img/feedbackRight.png'></img> </div> ","d","","","","","","","","","",""
"","","","","","video-keyboard-response","13","156850","0.0-13.0","5fbbf3f438be4c025df6cdd4","619531dcf66c91622fa1b861","61959beacd808f9ab6afc206","20426.899999976158","[""video/endTraining.mp4""]"," ","","","","","","","","","",""
"","","","","","html-keyboard-response","14","156858","0.0-14.0-0.0-0.0","5fbbf3f438be4c025df6cdd4","619531dcf66c91622fa1b861","61959beacd808f9ab6afc206","null","","null","","","","","main_T1_ITI","","","","",""
"","","","","","visual-search-circle","15","160004","0.0-14.0-0.0-1.0","5fbbf3f438be4c025df6cdd4","619531dcf66c91622fa1b861","61959beacd808f9ab6afc206","2120.600000023842","","s","false","[[593,237],[434,31],[173,27],[8,228],[62,483],[295,599],[531,490]]","true","7","main_T2_Trial","d","img/Fire_Down_Target.gif","[""img/Fire_Up_Distractor.gif"",""img/Fire_Up_Distractor.gif"",""img/Fire_Up_Distractor.gif"",""img/Fire_Up_Distractor.gif"",""img/Fire_Up_Distractor.gif"",""img/Fire_Up_Distractor.gif"",""img/Fire_Up_Distractor.gif"",""img/Fire_Up_Distractor.gif"",""img/Fire_Up_Distractor.gif"",""img/Fire_Up_Distractor.gif"",""img/Fire_Up_Distractor.gif"",""img/Fire_Up_Distractor.gif""]","7","targetDown_distractorsUp"
"","","","","","html-keyboard-response","16","160012","0.0-14.0-0.0-0.1","5fbbf3f438be4c025df6cdd4","619531dcf66c91622fa1b861","61959beacd808f9ab6afc206","null","","null","","","","","main_T1_ITI","","","","",""
"","","","","","visual-search-circle","17","162597","0.0-14.0-0.0-1.1","5fbbf3f438be4c025df6cdd4","619531dcf66c91622fa1b861","61959beacd808f9ab6afc206","1569.8999999761581","","d","true","[[11,382],[289,599],[581,402],[484,63],[132,51]]","true","5","main_T2_Trial","d","img/Fire_Down_Target.gif","[""img/Fire_Up_Distractor.gif"",""img/Fire_Up_Distractor.gif"",""img/Fire_Up_Distractor.gif"",""img/Fire_Up_Distractor.gif"",""img/Fire_Up_Distractor.gif"",""img/Fire_Up_Distractor.gif"",""img/Fire_Up_Distractor.gif"",""img/Fire_Up_Distractor.gif"",""img/Fire_Up_Distractor.gif"",""img/Fire_Up_Distractor.gif"",""img/Fire_Up_Distractor.gif"",""img/Fire_Up_Distractor.gif""]","5","targetDown_distractorsUp"
"","","","","","html-keyboard-response","18","162607","0.0-14.0-0.0-0.2","5fbbf3f438be4c025df6cdd4","619531dcf66c91622fa1b861","61959beacd808f9ab6afc206","null","","null","","","","","main_T1_ITI","","","","",""
"","","","","","visual-search-circle","19","165123","0.0-14.0-0.0-1.2","5fbbf3f438be4c025df6cdd4","619531dcf66c91622fa1b861","61959beacd808f9ab6afc206","1493.5","","s","true","[[30,168],[91,515],[440,564],[595,247],[341,2]]","false","5","main_T2_Trial","s","img/Fire_Up_Target.gif","[""img/Fire_Down_Distractor.gif"",""img/Fire_Down_Distractor.gif"",""img/Fire_Down_Distractor.gif"",""img/Fire_Down_Distractor.gif"",""img/Fire_Down_Distractor.gif"",""img/Fire_Down_Distractor.gif"",""img/Fire_Down_Distractor.gif"",""img/Fire_Down_Distractor.gif"",""img/Fire_Down_Distractor.gif"",""img/Fire_Down_Distractor.gif"",""img/Fire_Down_Distractor.gif"",""img/Fire_Down_Distractor.gif""]","5","targetUp_distractorsDown"
"","","","","","html-keyboard-response","20","165139","0.0-14.0-0.0-0.3","5fbbf3f438be4c025df6cdd4","619531dcf66c91622fa1b861","61959beacd808f9ab6afc206","null","","null","","","","","main_T1_ITI","","","","",""
"","","","","","visual-search-circle","21","168263","0.0-14.0-0.0-1.3","5fbbf3f438be4c025df6cdd4","619531dcf66c91622fa1b861","61959beacd808f9ab6afc206","2109.300000011921","","s","true","[[407,580],[580,192],[192,19],[19,407]]","false","4","main_T2_Trial","s","img/Fire_Down_Target.gif","[""img/Fire_Up_Distractor.gif"",""img/Fire_Up_Distractor.gif"",""img/Fire_Up_Distractor.gif"",""img/Fire_Up_Distractor.gif"",""img/Fire_Up_Distractor.gif"",""img/Fire_Up_Distractor.gif"",""img/Fire_Up_Distractor.gif"",""img/Fire_Up_Distractor.gif"",""img/Fire_Up_Distractor.gif"",""img/Fire_Up_Distractor.gif"",""img/Fire_Up_Distractor.gif"",""img/Fire_Up_Distractor.gif""]","4","targetDown_distractorsUp"
"","","","","","html-keyboard-response","22","168278","0.0-14.0-0.0-0.4","5fbbf3f438be4c025df6cdd4","619531dcf66c91622fa1b861","61959beacd808f9ab6afc206","null","","null","","","","","main_T1_ITI","","","","",""
"","","","","","visual-search-circle","23","170248","0.0-14.0-0.0-1.4","5fbbf3f438be4c025df6cdd4","619531dcf66c91622fa1b861","61959beacd808f9ab6afc206","936.5999999642372","","d","true","[[119,539],[374,590],[573,422],[566,162],[358,5],[106,70],[0,308]]","true","7","main_T2_Trial","d","img/Fire_Up_Target.gif","[""img/Fire_Down_Distractor.gif"",""img/Fire_Down_Distractor.gif"",""img/Fire_Down_Distractor.gif"",""img/Fire_Down_Distractor.gif"",""img/Fire_Down_Distractor.gif"",""img/Fire_Down_Distractor.gif"",""img/Fire_Down_Distractor.gif"",""img/Fire_Down_Distractor.gif"",""img/Fire_Down_Distractor.gif"",""img/Fire_Down_Distractor.gif"",""img/Fire_Down_Distractor.gif"",""img/Fire_Down_Distractor.gif""]","7","targetUp_distractorsDown"
"","","","","","html-keyboard-response","24","170256","0.0-14.0-0.0-0.5","5fbbf3f438be4c025df6cdd4","619531dcf66c91622fa1b861","61959beacd808f9ab6afc206","null","","null","","","","","main_T1_ITI","","","","",""
"","","","","","visual-search-circle","25","172800","0.0-14.0-0.0-1.5","5fbbf3f438be4c025df6cdd4","619531dcf66c91622fa1b861","61959beacd808f9ab6afc206","1536.5","","d","true","[[115,63],[63,484],[484,536],[536,115]]","true","4","main_T2_Trial","d","img/Fire_Down_Target.gif","[""img/Fire_Up_Distractor.gif"",""img/Fire_Up_Distractor.gif"",""img/Fire_Up_Distractor.gif"",""img/Fire_Up_Distractor.gif"",""img/Fire_Up_Distractor.gif"",""img/Fire_Up_Distractor.gif"",""img/Fire_Up_Distractor.gif"",""img/Fire_Up_Distractor.gif"",""img/Fire_Up_Distractor.gif"",""img/Fire_Up_Distractor.gif"",""img/Fire_Up_Distractor.gif"",""img/Fire_Up_Distractor.gif""]","4","targetDown_distractorsUp"
"","","","","","html-keyboard-response","26","172819","0.0-14.0-0.0-0.6","5fbbf3f438be4c025df6cdd4","619531dcf66c91622fa1b861","61959beacd808f9ab6afc206","null","","null","","","","","main_T1_ITI","","","","",""
"","","","","","visual-search-circle","27","174963","0.0-14.0-0.0-1.6","5fbbf3f438be4c025df6cdd4","619531dcf66c91622fa1b861","61959beacd808f9ab6afc206","1126.2999999523163","","d","true","[[567,436],[512,87],[163,32],[3,346],[253,596]]","true","5","main_T2_Trial","d","img/Fire_Down_Target.gif","[""img/Fire_Up_Distractor.gif"",""img/Fire_Up_Distractor.gif"",""img/Fire_Up_Distractor.gif"",""img/Fire_Up_Distractor.gif"",""img/Fire_Up_Distractor.gif"",""img/Fire_Up_Distractor.gif"",""img/Fire_Up_Distractor.gif"",""img/Fire_Up_Distractor.gif"",""img/Fire_Up_Distractor.gif"",""img/Fire_Up_Distractor.gif"",""img/Fire_Up_Distractor.gif"",""img/Fire_Up_Distractor.gif""]","5","targetDown_distractorsUp"
"","","","","","html-keyboard-response","28","174994","0.0-14.0-0.0-0.7","5fbbf3f438be4c025df6cdd4","619531dcf66c91622fa1b861","61959beacd808f9ab6afc206","null","","null","","","","","main_T1_ITI","","","","",""
"","","","","","visual-search-circle","29","177440","0.0-14.0-0.0-1.7","5fbbf3f438be4c025df6cdd4","619531dcf66c91622fa1b861","61959beacd808f9ab6afc206","1423.8999999761581","","s","true","[[14,207],[49,465],[273,598],[516,507],[597,259],[453,42],[194,19]]","false","7","main_T2_Trial","s","img/Fire_Up_Target.gif","[""img/Fire_Down_Distractor.gif"",""img/Fire_Down_Distractor.gif"",""img/Fire_Down_Distractor.gif"",""img/Fire_Down_Distractor.gif"",""img/Fire_Down_Distractor.gif"",""img/Fire_Down_Distractor.gif"",""img/Fire_Down_Distractor.gif"",""img/Fire_Down_Distractor.gif"",""img/Fire_Down_Distractor.gif"",""img/Fire_Down_Distractor.gif"",""img/Fire_Down_Distractor.gif"",""img/Fire_Down_Distractor.gif""]","7","targetUp_distractorsDown"
"","","","","","html-keyboard-response","30","177443","0.0-14.0-0.0-0.8","5fbbf3f438be4c025df6cdd4","619531dcf66c91622fa1b861","61959beacd808f9ab6afc206","null","","null","","","","","main_T1_ITI","","","","",""
"","","","","","visual-search-circle","31","179395","0.0-14.0-0.0-1.8","5fbbf3f438be4c025df6cdd4","619531dcf66c91622fa1b861","61959beacd808f9ab6afc206","938.1999999880791","","d","true","[[5,242],[154,562],[504,519],[571,173],[263,2]]","true","5","main_T2_Trial","d","img/Fire_Down_Target.gif","[""img/Fire_Up_Distractor.gif"",""img/Fire_Up_Distractor.gif"",""img/Fire_Up_Distractor.gif"",""img/Fire_Up_Distractor.gif"",""img/Fire_Up_Distractor.gif"",""img/Fire_Up_Distractor.gif"",""img/Fire_Up_Distractor.gif"",""img/Fire_Up_Distractor.gif"",""img/Fire_Up_Distractor.gif"",""img/Fire_Up_Distractor.gif"",""img/Fire_Up_Distractor.gif"",""img/Fire_Up_Distractor.gif""]","5","targetDown_distractorsUp"
"","","","","","html-keyboard-response","32","179415","0.0-14.0-0.0-0.9","5fbbf3f438be4c025df6cdd4","619531dcf66c91622fa1b861","61959beacd808f9ab6afc206","null","","null","","","","","main_T1_ITI","","","","",""
"","","","","","visual-search-circle","33","182530","0.0-14.0-0.0-1.9","5fbbf3f438be4c025df6cdd4","619531dcf66c91622fa1b861","61959beacd808f9ab6afc206","2098.900000035763","","s","true","[[559,150],[344,3],[95,80],[0,322],[131,547],[388,586],[579,409]]","false","7","main_T2_Trial","s","img/Fire_Down_Target.gif","[""img/Fire_Up_Distractor.gif"",""img/Fire_Up_Distractor.gif"",""img/Fire_Up_Distractor.gif"",""img/Fire_Up_Distractor.gif"",""img/Fire_Up_Distractor.gif"",""img/Fire_Up_Distractor.gif"",""img/Fire_Up_Distractor.gif"",""img/Fire_Up_Distractor.gif"",""img/Fire_Up_Distractor.gif"",""img/Fire_Up_Distractor.gif"",""img/Fire_Up_Distractor.gif"",""img/Fire_Up_Distractor.gif""]","7","targetDown_distractorsUp"
"","","","","","html-keyboard-response","34","182536","0.0-14.0-0.0-0.10","5fbbf3f438be4c025df6cdd4","619531dcf66c91622fa1b861","61959beacd808f9ab6afc206","null","","null","","","","","main_T1_ITI","","","","",""
"","","","","","visual-search-circle","35","185139","0.0-14.0-0.0-1.10","5fbbf3f438be4c025df6cdd4","619531dcf66c91622fa1b861","61959beacd808f9ab6afc206","1572.6000000238419","","d","true","[[54,127],[4,352],[127,545],[352,595],[545,472],[595,247],[472,54],[247,4]]","true","8","main_T2_Trial","d","img/Fire_Down_Target.gif","[""img/Fire_Up_Distractor.gif"",""img/Fire_Up_Distractor.gif"",""img/Fire_Up_Distractor.gif"",""img/Fire_Up_Distractor.gif"",""img/Fire_Up_Distractor.gif"",""img/Fire_Up_Distractor.gif"",""img/Fire_Up_Distractor.gif"",""img/Fire_Up_Distractor.gif"",""img/Fire_Up_Distractor.gif"",""img/Fire_Up_Distractor.gif"",""img/Fire_Up_Distractor.gif"",""img/Fire_Up_Distractor.gif""]","8","targetDown_distractorsUp"
"","","","","","html-keyboard-response","36","185144","0.0-14.0-0.0-0.11","5fbbf3f438be4c025df6cdd4","619531dcf66c91622fa1b861","61959beacd808f9ab6afc206","null","","null","","","","","main_T1_ITI","","","","",""
"","","","","","visual-search-circle","37","187677","0.0-14.0-0.0-1.11","5fbbf3f438be4c025df6cdd4","619531dcf66c91622fa1b861","61959beacd808f9ab6afc206","1503.5","","s","true","[[377,589],[559,450],[589,222],[449,40],[222,10],[40,150],[10,377],[150,559]]","false","8","main_T2_Trial","s","img/Fire_Down_Target.gif","[""img/Fire_Up_Distractor.gif"",""img/Fire_Up_Distractor.gif"",""img/Fire_Up_Distractor.gif"",""img/Fire_Up_Distractor.gif"",""img/Fire_Up_Distractor.gif"",""img/Fire_Up_Distractor.gif"",""img/Fire_Up_Distractor.gif"",""img/Fire_Up_Distractor.gif"",""img/Fire_Up_Distractor.gif"",""img/Fire_Up_Distractor.gif"",""img/Fire_Up_Distractor.gif"",""img/Fire_Up_Distractor.gif""]","8","targetDown_distractorsUp"
"","","","","","html-keyboard-response","38","187700","0.0-14.0-0.0-0.12","5fbbf3f438be4c025df6cdd4","619531dcf66c91622fa1b861","61959beacd808f9ab6afc206","null","","null","","","","","main_T1_ITI","","","","",""
"","","","","","visual-search-circle","39","189963","0.0-14.0-0.0-1.12","5fbbf3f438be4c025df6cdd4","619531dcf66c91622fa1b861","61959beacd808f9ab6afc206","1242.5","","d","true","[[132,548],[484,536],[581,197],[289,0],[11,217]]","true","5","main_T2_Trial","d","img/Fire_Up_Target.gif","[""img/Fire_Down_Distractor.gif"",""img/Fire_Down_Distractor.gif"",""img/Fire_Down_Distractor.gif"",""img/Fire_Down_Distractor.gif"",""img/Fire_Down_Distractor.gif"",""img/Fire_Down_Distractor.gif"",""img/Fire_Down_Distractor.gif"",""img/Fire_Down_Distractor.gif"",""img/Fire_Down_Distractor.gif"",""img/Fire_Down_Distractor.gif"",""img/Fire_Down_Distractor.gif"",""img/Fire_Down_Distractor.gif""]","5","targetUp_distractorsDown"
"","","","","","html-keyboard-response","40","189974","0.0-14.0-0.0-0.13","5fbbf3f438be4c025df6cdd4","619531dcf66c91622fa1b861","61959beacd808f9ab6afc206","null","","null","","","","","main_T1_ITI","","","","",""
"","","","","","visual-search-circle","41","192803","0.0-14.0-0.0-1.13","5fbbf3f438be4c025df6cdd4","619531dcf66c91622fa1b861","61959beacd808f9ab6afc206","1805.5","","d","true","[[377,10],[87,87],[10,377],[222,589],[512,512],[589,222]]","true","6","main_T2_Trial","d","img/Fire_Down_Target.gif","[""img/Fire_Up_Distractor.gif"",""img/Fire_Up_Distractor.gif"",""img/Fire_Up_Distractor.gif"",""img/Fire_Up_Distractor.gif"",""img/Fire_Up_Distractor.gif"",""img/Fire_Up_Distractor.gif"",""img/Fire_Up_Distractor.gif"",""img/Fire_Up_Distractor.gif"",""img/Fire_Up_Distractor.gif"",""img/Fire_Up_Distractor.gif"",""img/Fire_Up_Distractor.gif"",""img/Fire_Up_Distractor.gif""]","6","targetDown_distractorsUp"
"","","","","","html-keyboard-response","42","192805","0.0-14.0-0.0-0.14","5fbbf3f438be4c025df6cdd4","619531dcf66c91622fa1b861","61959beacd808f9ab6afc206","null","","null","","","","","main_T1_ITI","","","","",""
"","","","","","visual-search-circle","43","195170","0.0-14.0-0.0-1.14","5fbbf3f438be4c025df6cdd4","619531dcf66c91622fa1b861","61959beacd808f9ab6afc206","1351.0999999642372","","s","true","[[382,11],[91,84],[8,372],[217,588],[508,515],[591,227]]","false","6","main_T2_Trial","s","img/Fire_Up_Target.gif","[""img/Fire_Down_Distractor.gif"",""img/Fire_Down_Distractor.gif"",""img/Fire_Down_Distractor.gif"",""img/Fire_Down_Distractor.gif"",""img/Fire_Down_Distractor.gif"",""img/Fire_Down_Distractor.gif"",""img/Fire_Down_Distractor.gif"",""img/Fire_Down_Distractor.gif"",""img/Fire_Down_Distractor.gif"",""img/Fire_Down_Distractor.gif"",""img/Fire_Down_Distractor.gif"",""img/Fire_Down_Distractor.gif""]","6","targetUp_distractorsDown"
"","","","","","html-keyboard-response","44","195173","0.0-14.0-0.0-0.15","5fbbf3f438be4c025df6cdd4","619531dcf66c91622fa1b861","61959beacd808f9ab6afc206","null","","null","","","","","main_T1_ITI","","","","",""
"","","","","","visual-search-circle","45","197140","0.0-14.0-0.0-1.15","5fbbf3f438be4c025df6cdd4","619531dcf66c91622fa1b861","61959beacd808f9ab6afc206","952.9000000357628","","s","true","[[197,581],[492,529],[595,247],[402,18],[107,70],[4,352]]","false","6","main_T2_Trial","s","img/Fire_Up_Target.gif","[""img/Fire_Down_Distractor.gif"",""img/Fire_Down_Distractor.gif"",""img/Fire_Down_Distractor.gif"",""img/Fire_Down_Distractor.gif"",""img/Fire_Down_Distractor.gif"",""img/Fire_Down_Distractor.gif"",""img/Fire_Down_Distractor.gif"",""img/Fire_Down_Distractor.gif"",""img/Fire_Down_Distractor.gif"",""img/Fire_Down_Distractor.gif"",""img/Fire_Down_Distractor.gif"",""img/Fire_Down_Distractor.gif""]","6","targetUp_distractorsDown"
"","","","","","html-keyboard-response","46","197143","0.0-14.0-0.0-0.16","5fbbf3f438be4c025df6cdd4","619531dcf66c91622fa1b861","61959beacd808f9ab6afc206","null","","null","","","","","main_T1_ITI","","","","",""
"","","","","","visual-search-circle","47","198996","0.0-14.0-0.0-1.16","5fbbf3f438be4c025df6cdd4","619531dcf66c91622fa1b861","61959beacd808f9ab6afc206","819.5","","d","true","[[500,522],[599,315],[522,99],[315,0],[99,77],[0,284],[77,500],[284,599]]","true","8","main_T2_Trial","d","img/Fire_Down_Target.gif","[""img/Fire_Up_Distractor.gif"",""img/Fire_Up_Distractor.gif"",""img/Fire_Up_Distractor.gif"",""img/Fire_Up_Distractor.gif"",""img/Fire_Up_Distractor.gif"",""img/Fire_Up_Distractor.gif"",""img/Fire_Up_Distractor.gif"",""img/Fire_Up_Distractor.gif"",""img/Fire_Up_Distractor.gif"",""img/Fire_Up_Distractor.gif"",""img/Fire_Up_Distractor.gif"",""img/Fire_Up_Distractor.gif""]","8","targetDown_distractorsUp"
"","","","","","html-keyboard-response","48","199023","0.0-14.0-0.0-0.17","5fbbf3f438be4c025df6cdd4","619531dcf66c91622fa1b861","61959beacd808f9ab6afc206","null","","null","","","","","main_T1_ITI","","","","",""
"","","","","","visual-search-circle","49","200898","0.0-14.0-0.0-1.17","5fbbf3f438be4c025df6cdd4","619531dcf66c91622fa1b861","61959beacd808f9ab6afc206","853.3000000119209","","s","true","[[536,484],[597,263],[484,63],[263,2],[63,115],[2,336],[115,536],[336,597]]","false","8","main_T2_Trial","s","img/Fire_Down_Target.gif","[""img/Fire_Up_Distractor.gif"",""img/Fire_Up_Distractor.gif"",""img/Fire_Up_Distractor.gif"",""img/Fire_Up_Distractor.gif"",""img/Fire_Up_Distractor.gif"",""img/Fire_Up_Distractor.gif"",""img/Fire_Up_Distractor.gif"",""img/Fire_Up_Distractor.gif"",""img/Fire_Up_Distractor.gif"",""img/Fire_Up_Distractor.gif"",""img/Fire_Up_Distractor.gif"",""img/Fire_Up_Distractor.gif""]","8","targetDown_distractorsUp"
"","","","","","html-keyboard-response","50","200912","0.0-14.0-0.0-0.18","5fbbf3f438be4c025df6cdd4","619531dcf66c91622fa1b861","61959beacd808f9ab6afc206","null","","null","","","","","main_T1_ITI","","","","",""
"","","","","","visual-search-circle","51","203600","0.0-14.0-0.0-1.18","5fbbf3f438be4c025df6cdd4","619531dcf66c91622fa1b861","61959beacd808f9ab6afc206","1673.5","","d","true","[[4,352],[258,597],[569,431],[508,84],[159,35]]","true","5","main_T2_Trial","d","img/Fire_Up_Target.gif","[""img/Fire_Down_Distractor.gif"",""img/Fire_Down_Distractor.gif"",""img/Fire_Down_Distractor.gif"",""img/Fire_Down_Distractor.gif"",""img/Fire_Down_Distractor.gif"",""img/Fire_Down_Distractor.gif"",""img/Fire_Down_Distractor.gif"",""img/Fire_Down_Distractor.gif"",""img/Fire_Down_Distractor.gif"",""img/Fire_Down_Distractor.gif"",""img/Fire_Down_Distractor.gif"",""img/Fire_Down_Distractor.gif""]","5","targetUp_distractorsDown"
"","","","","","html-keyboard-response","52","207631","0.0-14.0-0.0-0.19","5fbbf3f438be4c025df6cdd4","619531dcf66c91622fa1b861","61959beacd808f9ab6afc206","4028.5","Wow! You've completed 20 out of 160 trials! </p> <p>  </p><p> Take a quick break, then press any key when you're ready to continue."," ","","","","","main_T1_ITI","","","","",""
"","","","","","visual-search-circle","53","209749","0.0-14.0-0.0-1.19","5fbbf3f438be4c025df6cdd4","619531dcf66c91622fa1b861","61959beacd808f9ab6afc206","1097.800000011921","","s","true","[[294,0],[13,212],[127,545],[480,539],[583,202]]","false","5","main_T2_Trial","s","img/Fire_Up_Target.gif","[""img/Fire_Down_Distractor.gif"",""img/Fire_Down_Distractor.gif"",""img/Fire_Down_Distractor.gif"",""img/Fire_Down_Distractor.gif"",""img/Fire_Down_Distractor.gif"",""img/Fire_Down_Distractor.gif"",""img/Fire_Down_Distractor.gif"",""img/Fire_Down_Distractor.gif"",""img/Fire_Down_Distractor.gif"",""img/Fire_Down_Distractor.gif"",""img/Fire_Down_Distractor.gif"",""img/Fire_Down_Distractor.gif""]","5","targetUp_distractorsDown"
"","","","","","html-keyboard-response","54","209755","0.0-14.0-0.0-0.20","5fbbf3f438be4c025df6cdd4","619531dcf66c91622fa1b861","61959beacd808f9ab6afc206","null","","null","","","","","main_T1_ITI","","","","",""
"","","","","","visual-search-circle","55","211415","0.0-14.0-0.0-1.20","5fbbf3f438be4c025df6cdd4","619531dcf66c91622fa1b861","61959beacd808f9ab6afc206","639.9000000357628","","d","true","[[10,222],[222,589],[589,377],[377,10]]","true","4","main_T2_Trial","d","img/Fire_Down_Target.gif","[""img/Fire_Up_Distractor.gif"",""img/Fire_Up_Distractor.gif"",""img/Fire_Up_Distractor.gif"",""img/Fire_Up_Distractor.gif"",""img/Fire_Up_Distractor.gif"",""img/Fire_Up_Distractor.gif"",""img/Fire_Up_Distractor.gif"",""img/Fire_Up_Distractor.gif"",""img/Fire_Up_Distractor.gif"",""img/Fire_Up_Distractor.gif"",""img/Fire_Up_Distractor.gif"",""img/Fire_Up_Distractor.gif""]","4","targetDown_distractorsUp"
"","","","","","html-keyboard-response","56","211444","0.0-14.0-0.0-0.21","5fbbf3f438be4c025df6cdd4","619531dcf66c91622fa1b861","61959beacd808f9ab6afc206","null","","null","","","","","main_T1_ITI","","","","",""
"","","","","","visual-search-circle","57","213280","0.0-14.0-0.0-1.21","5fbbf3f438be4c025df6cdd4","619531dcf66c91622fa1b861","61959beacd808f9ab6afc206","807.1999999880791","","s","true","[[207,585],[500,522],[593,237],[392,14],[99,77],[6,362]]","false","6","main_T2_Trial","s","img/Fire_Down_Target.gif","[""img/Fire_Up_Distractor.gif"",""img/Fire_Up_Distractor.gif"",""img/Fire_Up_Distractor.gif"",""img/Fire_Up_Distractor.gif"",""img/Fire_Up_Distractor.gif"",""img/Fire_Up_Distractor.gif"",""img/Fire_Up_Distractor.gif"",""img/Fire_Up_Distractor.gif"",""img/Fire_Up_Distractor.gif"",""img/Fire_Up_Distractor.gif"",""img/Fire_Up_Distractor.gif"",""img/Fire_Up_Distractor.gif""]","6","targetDown_distractorsUp"
"","","","","","html-keyboard-response","58","213282","0.0-14.0-0.0-0.22","5fbbf3f438be4c025df6cdd4","619531dcf66c91622fa1b861","61959beacd808f9ab6afc206","null","","null","","","","","main_T1_ITI","","","","",""
"","","","","","visual-search-circle","59","215195","0.0-14.0-0.0-1.22","5fbbf3f438be4c025df6cdd4","619531dcf66c91622fa1b861","61959beacd808f9ab6afc206","887.4000000357628","","s","true","[[99,522],[450,559],[593,237],[331,1],[25,177]]","false","5","main_T2_Trial","s","img/Fire_Up_Target.gif","[""img/Fire_Down_Distractor.gif"",""img/Fire_Down_Distractor.gif"",""img/Fire_Down_Distractor.gif"",""img/Fire_Down_Distractor.gif"",""img/Fire_Down_Distractor.gif"",""img/Fire_Down_Distractor.gif"",""img/Fire_Down_Distractor.gif"",""img/Fire_Down_Distractor.gif"",""img/Fire_Down_Distractor.gif"",""img/Fire_Down_Distractor.gif"",""img/Fire_Down_Distractor.gif"",""img/Fire_Down_Distractor.gif""]","5","targetUp_distractorsDown"
"","","","","","html-keyboard-response","60","215197","0.0-14.0-0.0-0.23","5fbbf3f438be4c025df6cdd4","619531dcf66c91622fa1b861","61959beacd808f9ab6afc206","null","","null","","","","","main_T1_ITI","","","","",""
"","","","","","visual-search-circle","61","217135","0.0-14.0-0.0-1.23","5fbbf3f438be4c025df6cdd4","619531dcf66c91622fa1b861","61959beacd808f9ab6afc206","909.2000000476837","","s","true","[[336,2],[60,119],[23,417],[263,597],[539,480],[576,182]]","false","6","main_T2_Trial","s","img/Fire_Down_Target.gif","[""img/Fire_Up_Distractor.gif"",""img/Fire_Up_Distractor.gif"",""img/Fire_Up_Distractor.gif"",""img/Fire_Up_Distractor.gif"",""img/Fire_Up_Distractor.gif"",""img/Fire_Up_Distractor.gif"",""img/Fire_Up_Distractor.gif"",""img/Fire_Up_Distractor.gif"",""img/Fire_Up_Distractor.gif"",""img/Fire_Up_Distractor.gif"",""img/Fire_Up_Distractor.gif"",""img/Fire_Up_Distractor.gif""]","6","targetDown_distractorsUp"
"","","","","","html-keyboard-response","62","217138","0.0-14.0-0.0-0.24","5fbbf3f438be4c025df6cdd4","619531dcf66c91622fa1b861","61959beacd808f9ab6afc206","null","","null","","","","","main_T1_ITI","","","","",""
"","","","","","visual-search-circle","63","219167","0.0-14.0-0.0-1.24","5fbbf3f438be4c025df6cdd4","619531dcf66c91622fa1b861","61959beacd808f9ab6afc206","1002.8999999761581","","s","true","[[436,32],[87,87],[32,436],[346,596],[596,346]]","false","5","main_T2_Trial","s","img/Fire_Up_Target.gif","[""img/Fire_Down_Distractor.gif"",""img/Fire_Down_Distractor.gif"",""img/Fire_Down_Distractor.gif"",""img/Fire_Down_Distractor.gif"",""img/Fire_Down_Distractor.gif"",""img/Fire_Down_Distractor.gif"",""img/Fire_Down_Distractor.gif"",""img/Fire_Down_Distractor.gif"",""img/Fire_Down_Distractor.gif"",""img/Fire_Down_Distractor.gif"",""img/Fire_Down_Distractor.gif"",""img/Fire_Down_Distractor.gif""]","5","targetUp_distractorsDown"
"","","","","","html-keyboard-response","64","219178","0.0-14.0-0.0-0.25","5fbbf3f438be4c025df6cdd4","619531dcf66c91622fa1b861","61959beacd808f9ab6afc206","null","","null","","","","","main_T1_ITI","","","","",""
"","","","","","visual-search-circle","65","222325","0.0-14.0-0.0-1.25","5fbbf3f438be4c025df6cdd4","619531dcf66c91622fa1b861","61959beacd808f9ab6afc206","2130.7999999523163","","s","false","[[5,242],[242,594],[594,357],[357,5]]","true","4","main_T2_Trial","d","img/Fire_Up_Target.gif","[""img/Fire_Down_Distractor.gif"",""img/Fire_Down_Distractor.gif"",""img/Fire_Down_Distractor.gif"",""img/Fire_Down_Distractor.gif"",""img/Fire_Down_Distractor.gif"",""img/Fire_Down_Distractor.gif"",""img/Fire_Down_Distractor.gif"",""img/Fire_Down_Distractor.gif"",""img/Fire_Down_Distractor.gif"",""img/Fire_Down_Distractor.gif"",""img/Fire_Down_Distractor.gif"",""img/Fire_Down_Distractor.gif""]","4","targetUp_distractorsDown"
"","","","","","html-keyboard-response","66","222361","0.0-14.0-0.0-0.26","5fbbf3f438be4c025df6cdd4","619531dcf66c91622fa1b861","61959beacd808f9ab6afc206","null","","null","","","","","main_T1_ITI","","","","",""
"","","","","","visual-search-circle","67","224487","0.0-14.0-0.0-1.26","5fbbf3f438be4c025df6cdd4","619531dcf66c91622fa1b861","61959beacd808f9ab6afc206","1102.699999988079","","s","true","[[247,4],[54,127],[4,352],[127,545],[352,595],[545,472],[595,247],[472,54]]","false","8","main_T2_Trial","s","img/Fire_Down_Target.gif","[""img/Fire_Up_Distractor.gif"",""img/Fire_Up_Distractor.gif"",""img/Fire_Up_Distractor.gif"",""img/Fire_Up_Distractor.gif"",""img/Fire_Up_Distractor.gif"",""img/Fire_Up_Distractor.gif"",""img/Fire_Up_Distractor.gif"",""img/Fire_Up_Distractor.gif"",""img/Fire_Up_Distractor.gif"",""img/Fire_Up_Distractor.gif"",""img/Fire_Up_Distractor.gif"",""img/Fire_Up_Distractor.gif""]","8","targetDown_distractorsUp"
"","","","","","html-keyboard-response","68","224490","0.0-14.0-0.0-0.27","5fbbf3f438be4c025df6cdd4","619531dcf66c91622fa1b861","61959beacd808f9ab6afc206","null","","null","","","","","main_T1_ITI","","","","",""
"","","","","","visual-search-circle","69","226577","0.0-14.0-0.0-1.27","5fbbf3f438be4c025df6cdd4","619531dcf66c91622fa1b861","61959beacd808f9ab6afc206","1067.5999999642372","","s","true","[[496,526],[599,287],[476,57],[220,10],[24,181],[35,441],[245,595]]","false","7","main_T2_Trial","s","img/Fire_Up_Target.gif","[""img/Fire_Down_Distractor.gif"",""img/Fire_Down_Distractor.gif"",""img/Fire_Down_Distractor.gif"",""img/Fire_Down_Distractor.gif"",""img/Fire_Down_Distractor.gif"",""img/Fire_Down_Distractor.gif"",""img/Fire_Down_Distractor.gif"",""img/Fire_Down_Distractor.gif"",""img/Fire_Down_Distractor.gif"",""img/Fire_Down_Distractor.gif"",""img/Fire_Down_Distractor.gif"",""img/Fire_Down_Distractor.gif""]","7","targetUp_distractorsDown"
"","","","","","html-keyboard-response","70","226597","0.0-14.0-0.0-0.28","5fbbf3f438be4c025df6cdd4","619531dcf66c91622fa1b861","61959beacd808f9ab6afc206","null","","null","","","","","main_T1_ITI","","","","",""
"","","","","","visual-search-circle","71","228681","0.0-14.0-0.0-1.28","5fbbf3f438be4c025df6cdd4","619531dcf66c91622fa1b861","61959beacd808f9ab6afc206","1058.8999999761581","","s","true","[[567,436],[551,136],[284,0],[32,163],[48,463],[315,599]]","false","6","main_T2_Trial","s","img/Fire_Up_Target.gif","[""img/Fire_Down_Distractor.gif"",""img/Fire_Down_Distractor.gif"",""img/Fire_Down_Distractor.gif"",""img/Fire_Down_Distractor.gif"",""img/Fire_Down_Distractor.gif"",""img/Fire_Down_Distractor.gif"",""img/Fire_Down_Distractor.gif"",""img/Fire_Down_Distractor.gif"",""img/Fire_Down_Distractor.gif"",""img/Fire_Down_Distractor.gif"",""img/Fire_Down_Distractor.gif"",""img/Fire_Down_Distractor.gif""]","6","targetUp_distractorsDown"
"","","","","","html-keyboard-response","72","228720","0.0-14.0-0.0-0.29","5fbbf3f438be4c025df6cdd4","619531dcf66c91622fa1b861","61959beacd808f9ab6afc206","null","","null","","","","","main_T1_ITI","","","","",""
"","","","","","visual-search-circle","73","230906","0.0-14.0-0.0-1.29","5fbbf3f438be4c025df6cdd4","619531dcf66c91622fa1b861","61959beacd808f9ab6afc206","1164.8999999761581","","d","true","[[320,599],[547,470],[587,213],[410,21],[151,39],[3,253],[79,502]]","true","7","main_T2_Trial","d","img/Fire_Down_Target.gif","[""img/Fire_Up_Distractor.gif"",""img/Fire_Up_Distractor.gif"",""img/Fire_Up_Distractor.gif"",""img/Fire_Up_Distractor.gif"",""img/Fire_Up_Distractor.gif"",""img/Fire_Up_Distractor.gif"",""img/Fire_Up_Distractor.gif"",""img/Fire_Up_Distractor.gif"",""img/Fire_Up_Distractor.gif"",""img/Fire_Up_Distractor.gif"",""img/Fire_Up_Distractor.gif"",""img/Fire_Up_Distractor.gif""]","7","targetDown_distractorsUp"
"","","","","","html-keyboard-response","74","230909","0.0-14.0-0.0-0.30","5fbbf3f438be4c025df6cdd4","619531dcf66c91622fa1b861","61959beacd808f9ab6afc206","null","","null","","","","","main_T1_ITI","","","","",""
"","","","","","visual-search-circle","75","233742","0.0-14.0-0.0-1.30","5fbbf3f438be4c025df6cdd4","619531dcf66c91622fa1b861","61959beacd808f9ab6afc206","1805.1000000238419","","d","true","[[11,217],[217,588],[588,382],[382,11]]","true","4","main_T2_Trial","d","img/Fire_Up_Target.gif","[""img/Fire_Down_Distractor.gif"",""img/Fire_Down_Distractor.gif"",""img/Fire_Down_Distractor.gif"",""img/Fire_Down_Distractor.gif"",""img/Fire_Down_Distractor.gif"",""img/Fire_Down_Distractor.gif"",""img/Fire_Down_Distractor.gif"",""img/Fire_Down_Distractor.gif"",""img/Fire_Down_Distractor.gif"",""img/Fire_Down_Distractor.gif"",""img/Fire_Down_Distractor.gif"",""img/Fire_Down_Distractor.gif""]","4","targetUp_distractorsDown"
"","","","","","html-keyboard-response","76","233750","0.0-14.0-0.0-0.31","5fbbf3f438be4c025df6cdd4","619531dcf66c91622fa1b861","61959beacd808f9ab6afc206","null","","null","","","","","main_T1_ITI","","","","",""
"","","","","","visual-search-circle","77","235740","0.0-14.0-0.0-1.31","5fbbf3f438be4c025df6cdd4","619531dcf66c91622fa1b861","61959beacd808f9ab6afc206","963.5999999642372","","s","true","[[580,407],[574,177],[407,19],[177,25],[19,192],[25,422],[192,580],[422,574]]","false","8","main_T2_Trial","s","img/Fire_Up_Target.gif","[""img/Fire_Down_Distractor.gif"",""img/Fire_Down_Distractor.gif"",""img/Fire_Down_Distractor.gif"",""img/Fire_Down_Distractor.gif"",""img/Fire_Down_Distractor.gif"",""img/Fire_Down_Distractor.gif"",""img/Fire_Down_Distractor.gif"",""img/Fire_Down_Distractor.gif"",""img/Fire_Down_Distractor.gif"",""img/Fire_Down_Distractor.gif"",""img/Fire_Down_Distractor.gif"",""img/Fire_Down_Distractor.gif""]","8","targetUp_distractorsDown"
"","","","","","html-keyboard-response","78","235743","0.0-14.0-0.0-0.32","5fbbf3f438be4c025df6cdd4","619531dcf66c91622fa1b861","61959beacd808f9ab6afc206","null","","null","","","","","main_T1_ITI","","","","",""
"","","","","","visual-search-circle","79","238289","0.0-14.0-0.0-1.32","5fbbf3f438be4c025df6cdd4","619531dcf66c91622fa1b861","61959beacd808f9ab6afc206","1504.3999999761581","","d","true","[[592,232],[387,13],[95,80],[7,367],[212,586],[504,519]]","true","6","main_T2_Trial","d","img/Fire_Up_Target.gif","[""img/Fire_Down_Distractor.gif"",""img/Fire_Down_Distractor.gif"",""img/Fire_Down_Distractor.gif"",""img/Fire_Down_Distractor.gif"",""img/Fire_Down_Distractor.gif"",""img/Fire_Down_Distractor.gif"",""img/Fire_Down_Distractor.gif"",""img/Fire_Down_Distractor.gif"",""img/Fire_Down_Distractor.gif"",""img/Fire_Down_Distractor.gif"",""img/Fire_Down_Distractor.gif"",""img/Fire_Down_Distractor.gif""]","6","targetUp_distractorsDown"
"","","","","","html-keyboard-response","80","238297","0.0-14.0-0.0-0.33","5fbbf3f438be4c025df6cdd4","619531dcf66c91622fa1b861","61959beacd808f9ab6afc206","null","","null","","","","","main_T1_ITI","","","","",""
"","","","","","visual-search-circle","81","240709","0.0-14.0-0.0-1.33","5fbbf3f438be4c025df6cdd4","619531dcf66c91622fa1b861","61959beacd808f9ab6afc206","1391.800000011921","","s","true","[[70,107],[18,402],[247,595],[529,492],[581,197],[352,4]]","false","6","main_T2_Trial","s","img/Fire_Down_Target.gif","[""img/Fire_Up_Distractor.gif"",""img/Fire_Up_Distractor.gif"",""img/Fire_Up_Distractor.gif"",""img/Fire_Up_Distractor.gif"",""img/Fire_Up_Distractor.gif"",""img/Fire_Up_Distractor.gif"",""img/Fire_Up_Distractor.gif"",""img/Fire_Up_Distractor.gif"",""img/Fire_Up_Distractor.gif"",""img/Fire_Up_Distractor.gif"",""img/Fire_Up_Distractor.gif"",""img/Fire_Up_Distractor.gif""]","6","targetDown_distractorsUp"
"","","","","","html-keyboard-response","82","240711","0.0-14.0-0.0-0.34","5fbbf3f438be4c025df6cdd4","619531dcf66c91622fa1b861","61959beacd808f9ab6afc206","null","","null","","","","","main_T1_ITI","","","","",""
"","","","","","visual-search-circle","83","243385","0.0-14.0-0.0-1.34","5fbbf3f438be4c025df6cdd4","619531dcf66c91622fa1b861","61959beacd808f9ab6afc206","1653.7000000476837","","d","true","[[533,488],[592,235],[432,30],[171,28],[8,231],[64,485],[297,599]]","true","7","main_T2_Trial","d","img/Fire_Up_Target.gif","[""img/Fire_Down_Distractor.gif"",""img/Fire_Down_Distractor.gif"",""img/Fire_Down_Distractor.gif"",""img/Fire_Down_Distractor.gif"",""img/Fire_Down_Distractor.gif"",""img/Fire_Down_Distractor.gif"",""img/Fire_Down_Distractor.gif"",""img/Fire_Down_Distractor.gif"",""img/Fire_Down_Distractor.gif"",""img/Fire_Down_Distractor.gif"",""img/Fire_Down_Distractor.gif"",""img/Fire_Down_Distractor.gif""]","7","targetUp_distractorsDown"
"","","","","","html-keyboard-response","84","243439","0.0-14.0-0.0-0.35","5fbbf3f438be4c025df6cdd4","619531dcf66c91622fa1b861","61959beacd808f9ab6afc206","null","","null","","","","","main_T1_ITI","","","","",""
"","","","","","visual-search-circle","85","245526","0.0-14.0-0.0-1.35","5fbbf3f438be4c025df6cdd4","619531dcf66c91622fa1b861","61959beacd808f9ab6afc206","1064.0999999642372","","s","true","[[84,508],[328,598],[551,464],[584,205],[404,18],[144,43],[2,261]]","false","7","main_T2_Trial","s","img/Fire_Down_Target.gif","[""img/Fire_Up_Distractor.gif"",""img/Fire_Up_Distractor.gif"",""img/Fire_Up_Distractor.gif"",""img/Fire_Up_Distractor.gif"",""img/Fire_Up_Distractor.gif"",""img/Fire_Up_Distractor.gif"",""img/Fire_Up_Distractor.gif"",""img/Fire_Up_Distractor.gif"",""img/Fire_Up_Distractor.gif"",""img/Fire_Up_Distractor.gif"",""img/Fire_Up_Distractor.gif"",""img/Fire_Up_Distractor.gif""]","7","targetDown_distractorsUp"
"","","","","","html-keyboard-response","86","245531","0.0-14.0-0.0-0.36","5fbbf3f438be4c025df6cdd4","619531dcf66c91622fa1b861","61959beacd808f9ab6afc206","null","","null","","","","","main_T1_ITI","","","","",""
"","","","","","visual-search-circle","87","247569","0.0-14.0-0.0-1.36","5fbbf3f438be4c025df6cdd4","619531dcf66c91622fa1b861","61959beacd808f9ab6afc206","1003","","s","false","[[168,30],[16,202],[30,431],[202,583],[431,569],[583,397],[569,168],[397,16]]","true","8","main_T2_Trial","d","img/Fire_Up_Target.gif","[""img/Fire_Down_Distractor.gif"",""img/Fire_Down_Distractor.gif"",""img/Fire_Down_Distractor.gif"",""img/Fire_Down_Distractor.gif"",""img/Fire_Down_Distractor.gif"",""img/Fire_Down_Distractor.gif"",""img/Fire_Down_Distractor.gif"",""img/Fire_Down_Distractor.gif"",""img/Fire_Down_Distractor.gif"",""img/Fire_Down_Distractor.gif"",""img/Fire_Down_Distractor.gif"",""img/Fire_Down_Distractor.gif""]","8","targetUp_distractorsDown"
"","","","","","html-keyboard-response","88","247596","0.0-14.0-0.0-0.37","5fbbf3f438be4c025df6cdd4","619531dcf66c91622fa1b861","61959beacd808f9ab6afc206","null","","null","","","","","main_T1_ITI","","","","",""
"","","","","","visual-search-circle","89","249671","0.0-14.0-0.0-1.37","5fbbf3f438be4c025df6cdd4","619531dcf66c91622fa1b861","61959beacd808f9ab6afc206","1018.1999999880791","","d","true","[[467,51],[115,63],[18,402],[310,599],[588,382]]","true","5","main_T2_Trial","d","img/Fire_Down_Target.gif","[""img/Fire_Up_Distractor.gif"",""img/Fire_Up_Distractor.gif"",""img/Fire_Up_Distractor.gif"",""img/Fire_Up_Distractor.gif"",""img/Fire_Up_Distractor.gif"",""img/Fire_Up_Distractor.gif"",""img/Fire_Up_Distractor.gif"",""img/Fire_Up_Distractor.gif"",""img/Fire_Up_Distractor.gif"",""img/Fire_Up_Distractor.gif"",""img/Fire_Up_Distractor.gif"",""img/Fire_Up_Distractor.gif""]","5","targetDown_distractorsUp"
"","","","","","html-keyboard-response","90","249694","0.0-14.0-0.0-0.38","5fbbf3f438be4c025df6cdd4","619531dcf66c91622fa1b861","61959beacd808f9ab6afc206","null","","null","","","","","main_T1_ITI","","","","",""
"","","","","","visual-search-circle","91","252189","0.0-14.0-0.0-1.38","5fbbf3f438be4c025df6cdd4","619531dcf66c91622fa1b861","61959beacd808f9ab6afc206","1475.199999988079","","s","true","[[123,542],[542,476],[476,57],[57,123]]","false","4","main_T2_Trial","s","img/Fire_Up_Target.gif","[""img/Fire_Down_Distractor.gif"",""img/Fire_Down_Distractor.gif"",""img/Fire_Down_Distractor.gif"",""img/Fire_Down_Distractor.gif"",""img/Fire_Down_Distractor.gif"",""img/Fire_Down_Distractor.gif"",""img/Fire_Down_Distractor.gif"",""img/Fire_Down_Distractor.gif"",""img/Fire_Down_Distractor.gif"",""img/Fire_Down_Distractor.gif"",""img/Fire_Down_Distractor.gif"",""img/Fire_Down_Distractor.gif""]","4","targetUp_distractorsDown"
"","","","","","html-keyboard-response","92","254613","0.0-14.0-0.0-0.39","5fbbf3f438be4c025df6cdd4","619531dcf66c91622fa1b861","61959beacd808f9ab6afc206","2422.399999976158","Wow! You've completed 40 out of 160 trials! </p> <p>  </p><p> Take a quick break, then press any key when you're ready to continue."," ","","","","","main_T1_ITI","","","","",""
"","","","","","visual-search-circle","93","257429","0.0-14.0-0.0-1.39","5fbbf3f438be4c025df6cdd4","619531dcf66c91622fa1b861","61959beacd808f9ab6afc206","1803","","s","true","[[504,80],[154,37],[5,357],[263,597],[571,426]]","false","5","main_T2_Trial","s","img/Fire_Down_Target.gif","[""img/Fire_Up_Distractor.gif"",""img/Fire_Up_Distractor.gif"",""img/Fire_Up_Distractor.gif"",""img/Fire_Up_Distractor.gif"",""img/Fire_Up_Distractor.gif"",""img/Fire_Up_Distractor.gif"",""img/Fire_Up_Distractor.gif"",""img/Fire_Up_Distractor.gif"",""img/Fire_Up_Distractor.gif"",""img/Fire_Up_Distractor.gif"",""img/Fire_Up_Distractor.gif"",""img/Fire_Up_Distractor.gif""]","5","targetDown_distractorsUp"
"","","","","","html-keyboard-response","94","257435","0.0-14.0-0.0-0.40","5fbbf3f438be4c025df6cdd4","619531dcf66c91622fa1b861","61959beacd808f9ab6afc206","null","","null","","","","","main_T1_ITI","","","","",""
"","","","","","visual-search-circle","95","259517","0.0-14.0-0.0-1.40","5fbbf3f438be4c025df6cdd4","619531dcf66c91622fa1b861","61959beacd808f9ab6afc206","1065.3999999761581","","d","true","[[273,598],[517,506],[597,258],[453,42],[193,19],[14,208],[50,465]]","true","7","main_T2_Trial","d","img/Fire_Down_Target.gif","[""img/Fire_Up_Distractor.gif"",""img/Fire_Up_Distractor.gif"",""img/Fire_Up_Distractor.gif"",""img/Fire_Up_Distractor.gif"",""img/Fire_Up_Distractor.gif"",""img/Fire_Up_Distractor.gif"",""img/Fire_Up_Distractor.gif"",""img/Fire_Up_Distractor.gif"",""img/Fire_Up_Distractor.gif"",""img/Fire_Up_Distractor.gif"",""img/Fire_Up_Distractor.gif"",""img/Fire_Up_Distractor.gif""]","7","targetDown_distractorsUp"
"","","","","","html-keyboard-response","96","259529","0.0-14.0-0.0-0.41","5fbbf3f438be4c025df6cdd4","619531dcf66c91622fa1b861","61959beacd808f9ab6afc206","null","","null","","","","","main_T1_ITI","","","","",""
"","","","","","visual-search-circle","97","261369","0.0-14.0-0.0-1.41","5fbbf3f438be4c025df6cdd4","619531dcf66c91622fa1b861","61959beacd808f9ab6afc206","800","","s","true","[[63,484],[263,597],[484,536],[597,336],[536,115],[336,2],[115,63],[2,263]]","false","8","main_T2_Trial","s","img/Fire_Up_Target.gif","[""img/Fire_Down_Distractor.gif"",""img/Fire_Down_Distractor.gif"",""img/Fire_Down_Distractor.gif"",""img/Fire_Down_Distractor.gif"",""img/Fire_Down_Distractor.gif"",""img/Fire_Down_Distractor.gif"",""img/Fire_Down_Distractor.gif"",""img/Fire_Down_Distractor.gif"",""img/Fire_Down_Distractor.gif"",""img/Fire_Down_Distractor.gif"",""img/Fire_Down_Distractor.gif"",""img/Fire_Down_Distractor.gif""]","8","targetUp_distractorsDown"
"","","","","","html-keyboard-response","98","261381","0.0-14.0-0.0-0.42","5fbbf3f438be4c025df6cdd4","619531dcf66c91622fa1b861","61959beacd808f9ab6afc206","null","","null","","","","","main_T1_ITI","","","","",""
"","","","","","visual-search-circle","99","263268","0.0-14.0-0.0-1.42","5fbbf3f438be4c025df6cdd4","619531dcf66c91622fa1b861","61959beacd808f9ab6afc206","875.6000000238419","","s","true","[[63,115],[115,536],[536,484],[484,63]]","false","4","main_T2_Trial","s","img/Fire_Up_Target.gif","[""img/Fire_Down_Distractor.gif"",""img/Fire_Down_Distractor.gif"",""img/Fire_Down_Distractor.gif"",""img/Fire_Down_Distractor.gif"",""img/Fire_Down_Distractor.gif"",""img/Fire_Down_Distractor.gif"",""img/Fire_Down_Distractor.gif"",""img/Fire_Down_Distractor.gif"",""img/Fire_Down_Distractor.gif"",""img/Fire_Down_Distractor.gif"",""img/Fire_Down_Distractor.gif"",""img/Fire_Down_Distractor.gif""]","4","targetUp_distractorsDown"
"","","","","","html-keyboard-response","100","263272","0.0-14.0-0.0-0.43","5fbbf3f438be4c025df6cdd4","619531dcf66c91622fa1b861","61959beacd808f9ab6afc206","null","","null","","","","","main_T1_ITI","","","","",""
"","","","","","visual-search-circle","101","265407","0.0-14.0-0.0-1.43","5fbbf3f438be4c025df6cdd4","619531dcf66c91622fa1b861","61959beacd808f9ab6afc206","1115.199999988079","","s","true","[[554,141],[289,0],[35,159],[45,458],[310,599],[564,440]]","false","6","main_T2_Trial","s","img/Fire_Down_Target.gif","[""img/Fire_Up_Distractor.gif"",""img/Fire_Up_Distractor.gif"",""img/Fire_Up_Distractor.gif"",""img/Fire_Up_Distractor.gif"",""img/Fire_Up_Distractor.gif"",""img/Fire_Up_Distractor.gif"",""img/Fire_Up_Distractor.gif"",""img/Fire_Up_Distractor.gif"",""img/Fire_Up_Distractor.gif"",""img/Fire_Up_Distractor.gif"",""img/Fire_Up_Distractor.gif"",""img/Fire_Up_Distractor.gif""]","6","targetDown_distractorsUp"
"","","","","","html-keyboard-response","102","265417","0.0-14.0-0.0-0.44","5fbbf3f438be4c025df6cdd4","619531dcf66c91622fa1b861","61959beacd808f9ab6afc206","null","","null","","","","","main_T1_ITI","","","","",""
"","","","","","visual-search-circle","103","267445","0.0-14.0-0.0-1.44","5fbbf3f438be4c025df6cdd4","619531dcf66c91622fa1b861","61959beacd808f9ab6afc206","1003.5","","d","true","[[232,592],[486,535],[599,300],[487,65],[233,7],[30,169],[29,429]]","true","7","main_T2_Trial","d","img/Fire_Up_Target.gif","[""img/Fire_Down_Distractor.gif"",""img/Fire_Down_Distractor.gif"",""img/Fire_Down_Distractor.gif"",""img/Fire_Down_Distractor.gif"",""img/Fire_Down_Distractor.gif"",""img/Fire_Down_Distractor.gif"",""img/Fire_Down_Distractor.gif"",""img/Fire_Down_Distractor.gif"",""img/Fire_Down_Distractor.gif"",""img/Fire_Down_Distractor.gif"",""img/Fire_Down_Distractor.gif"",""img/Fire_Down_Distractor.gif""]","7","targetUp_distractorsDown"
"","","","","","html-keyboard-response","104","267447","0.0-14.0-0.0-0.45","5fbbf3f438be4c025df6cdd4","619531dcf66c91622fa1b861","61959beacd808f9ab6afc206","null","","null","","","","","main_T1_ITI","","","","",""
"","","","","","visual-search-circle","105","269727","0.0-14.0-0.0-1.45","5fbbf3f438be4c025df6cdd4","619531dcf66c91622fa1b861","61959beacd808f9ab6afc206","1255.6000000238419","","d","true","[[586,212],[367,7],[80,95],[13,387],[232,592],[519,504]]","true","6","main_T2_Trial","d","img/Fire_Down_Target.gif","[""img/Fire_Up_Distractor.gif"",""img/Fire_Up_Distractor.gif"",""img/Fire_Up_Distractor.gif"",""img/Fire_Up_Distractor.gif"",""img/Fire_Up_Distractor.gif"",""img/Fire_Up_Distractor.gif"",""img/Fire_Up_Distractor.gif"",""img/Fire_Up_Distractor.gif"",""img/Fire_Up_Distractor.gif"",""img/Fire_Up_Distractor.gif"",""img/Fire_Up_Distractor.gif"",""img/Fire_Up_Distractor.gif""]","6","targetDown_distractorsUp"
"","","","","","html-keyboard-response","106","269731","0.0-14.0-0.0-0.46","5fbbf3f438be4c025df6cdd4","619531dcf66c91622fa1b861","61959beacd808f9ab6afc206","null","","null","","","","","main_T1_ITI","","","","",""
"","","","","","visual-search-circle","107","271828","0.0-14.0-0.0-1.46","5fbbf3f438be4c025df6cdd4","619531dcf66c91622fa1b861","61959beacd808f9ab6afc206","1077","","s","true","[[207,585],[465,550],[598,326],[507,83],[259,2],[42,146],[19,405]]","false","7","main_T2_Trial","s","img/Fire_Down_Target.gif","[""img/Fire_Up_Distractor.gif"",""img/Fire_Up_Distractor.gif"",""img/Fire_Up_Distractor.gif"",""img/Fire_Up_Distractor.gif"",""img/Fire_Up_Distractor.gif"",""img/Fire_Up_Distractor.gif"",""img/Fire_Up_Distractor.gif"",""img/Fire_Up_Distractor.gif"",""img/Fire_Up_Distractor.gif"",""img/Fire_Up_Distractor.gif"",""img/Fire_Up_Distractor.gif"",""img/Fire_Up_Distractor.gif""]","7","targetDown_distractorsUp"
"","","","","","html-keyboard-response","108","271847","0.0-14.0-0.0-0.47","5fbbf3f438be4c025df6cdd4","619531dcf66c91622fa1b861","61959beacd808f9ab6afc206","null","","null","","","","","main_T1_ITI","","","","",""
"","","","","","visual-search-circle","109","274012","0.0-14.0-0.0-1.47","5fbbf3f438be4c025df6cdd4","619531dcf66c91622fa1b861","61959beacd808f9ab6afc206","1136","","d","true","[[372,591],[557,454],[591,227],[454,42],[227,8],[42,145],[8,372],[145,557]]","true","8","main_T2_Trial","d","img/Fire_Up_Target.gif","[""img/Fire_Down_Distractor.gif"",""img/Fire_Down_Distractor.gif"",""img/Fire_Down_Distractor.gif"",""img/Fire_Down_Distractor.gif"",""img/Fire_Down_Distractor.gif"",""img/Fire_Down_Distractor.gif"",""img/Fire_Down_Distractor.gif"",""img/Fire_Down_Distractor.gif"",""img/Fire_Down_Distractor.gif"",""img/Fire_Down_Distractor.gif"",""img/Fire_Down_Distractor.gif"",""img/Fire_Down_Distractor.gif""]","8","targetUp_distractorsDown"
"","","","","","html-keyboard-response","110","274025","0.0-14.0-0.0-0.48","5fbbf3f438be4c025df6cdd4","619531dcf66c91622fa1b861","61959beacd808f9ab6afc206","null","","null","","","","","main_T1_ITI","","","","",""
"","","","","","visual-search-circle","111","276377","0.0-14.0-0.0-1.48","5fbbf3f438be4c025df6cdd4","619531dcf66c91622fa1b861","61959beacd808f9ab6afc206","1327.3999999761581","","d","true","[[557,454],[562,154],[305,0],[42,145],[37,445],[294,599]]","true","6","main_T2_Trial","d","img/Fire_Up_Target.gif","[""img/Fire_Down_Distractor.gif"",""img/Fire_Down_Distractor.gif"",""img/Fire_Down_Distractor.gif"",""img/Fire_Down_Distractor.gif"",""img/Fire_Down_Distractor.gif"",""img/Fire_Down_Distractor.gif"",""img/Fire_Down_Distractor.gif"",""img/Fire_Down_Distractor.gif"",""img/Fire_Down_Distractor.gif"",""img/Fire_Down_Distractor.gif"",""img/Fire_Down_Distractor.gif"",""img/Fire_Down_Distractor.gif""]","6","targetUp_distractorsDown"
"","","","","","html-keyboard-response","112","276405","0.0-14.0-0.0-0.49","5fbbf3f438be4c025df6cdd4","619531dcf66c91622fa1b861","61959beacd808f9ab6afc206","null","","null","","","","","main_T1_ITI","","","","",""
"","","","","","visual-search-circle","113","279045","0.0-14.0-0.0-1.49","5fbbf3f438be4c025df6cdd4","619531dcf66c91622fa1b861","61959beacd808f9ab6afc206","1608.8999999761581","","s","true","[[472,545],[595,352],[545,127],[352,4],[127,54],[4,247],[54,472],[247,595]]","false","8","main_T2_Trial","s","img/Fire_Up_Target.gif","[""img/Fire_Down_Distractor.gif"",""img/Fire_Down_Distractor.gif"",""img/Fire_Down_Distractor.gif"",""img/Fire_Down_Distractor.gif"",""img/Fire_Down_Distractor.gif"",""img/Fire_Down_Distractor.gif"",""img/Fire_Down_Distractor.gif"",""img/Fire_Down_Distractor.gif"",""img/Fire_Down_Distractor.gif"",""img/Fire_Down_Distractor.gif"",""img/Fire_Down_Distractor.gif"",""img/Fire_Down_Distractor.gif""]","8","targetUp_distractorsDown"
"","","","","","html-keyboard-response","114","279051","0.0-14.0-0.0-0.50","5fbbf3f438be4c025df6cdd4","619531dcf66c91622fa1b861","61959beacd808f9ab6afc206","null","","null","","","","","main_T1_ITI","","","","",""
"","","","","","visual-search-circle","115","281215","0.0-14.0-0.0-1.50","5fbbf3f438be4c025df6cdd4","619531dcf66c91622fa1b861","61959beacd808f9ab6afc206","1157.7999999523163","","d","true","[[30,168],[91,515],[440,564],[595,247],[341,2]]","true","5","main_T2_Trial","d","img/Fire_Down_Target.gif","[""img/Fire_Up_Distractor.gif"",""img/Fire_Up_Distractor.gif"",""img/Fire_Up_Distractor.gif"",""img/Fire_Up_Distractor.gif"",""img/Fire_Up_Distractor.gif"",""img/Fire_Up_Distractor.gif"",""img/Fire_Up_Distractor.gif"",""img/Fire_Up_Distractor.gif"",""img/Fire_Up_Distractor.gif"",""img/Fire_Up_Distractor.gif"",""img/Fire_Up_Distractor.gif"",""img/Fire_Up_Distractor.gif""]","5","targetDown_distractorsUp"
"","","","","","html-keyboard-response","116","281223","0.0-14.0-0.0-0.51","5fbbf3f438be4c025df6cdd4","619531dcf66c91622fa1b861","61959beacd808f9ab6afc206","null","","null","","","","","main_T1_ITI","","","","",""
"","","","","","visual-search-circle","117","283986","0.0-14.0-0.0-1.51","5fbbf3f438be4c025df6cdd4","619531dcf66c91622fa1b861","61959beacd808f9ab6afc206","1749.0999999642372","","s","true","[[11,217],[132,548],[484,536],[581,197],[289,0]]","false","5","main_T2_Trial","s","img/Fire_Up_Target.gif","[""img/Fire_Down_Distractor.gif"",""img/Fire_Down_Distractor.gif"",""img/Fire_Down_Distractor.gif"",""img/Fire_Down_Distractor.gif"",""img/Fire_Down_Distractor.gif"",""img/Fire_Down_Distractor.gif"",""img/Fire_Down_Distractor.gif"",""img/Fire_Down_Distractor.gif"",""img/Fire_Down_Distractor.gif"",""img/Fire_Down_Distractor.gif"",""img/Fire_Down_Distractor.gif"",""img/Fire_Down_Distractor.gif""]","5","targetUp_distractorsDown"
"","","","","","html-keyboard-response","118","283997","0.0-14.0-0.0-0.52","5fbbf3f438be4c025df6cdd4","619531dcf66c91622fa1b861","61959beacd808f9ab6afc206","null","","null","","","","","main_T1_ITI","","","","",""
"","","","","","visual-search-circle","119","286500","0.0-14.0-0.0-1.52","5fbbf3f438be4c025df6cdd4","619531dcf66c91622fa1b861","61959beacd808f9ab6afc206","1478.300000011921","","d","true","[[595,352],[524,101],[285,0],[56,124],[11,381],[183,576],[443,563]]","true","7","main_T2_Trial","d","img/Fire_Up_Target.gif","[""img/Fire_Down_Distractor.gif"",""img/Fire_Down_Distractor.gif"",""img/Fire_Down_Distractor.gif"",""img/Fire_Down_Distractor.gif"",""img/Fire_Down_Distractor.gif"",""img/Fire_Down_Distractor.gif"",""img/Fire_Down_Distractor.gif"",""img/Fire_Down_Distractor.gif"",""img/Fire_Down_Distractor.gif"",""img/Fire_Down_Distractor.gif"",""img/Fire_Down_Distractor.gif"",""img/Fire_Down_Distractor.gif""]","7","targetUp_distractorsDown"
"","","","","","html-keyboard-response","120","286502","0.0-14.0-0.0-0.53","5fbbf3f438be4c025df6cdd4","619531dcf66c91622fa1b861","61959beacd808f9ab6afc206","null","","null","","","","","main_T1_ITI","","","","",""
"","","","","","visual-search-circle","121","288516","0.0-14.0-0.0-1.53","5fbbf3f438be4c025df6cdd4","619531dcf66c91622fa1b861","61959beacd808f9ab6afc206","996.8999999761581","","s","true","[[0,284],[136,551],[436,567],[599,315],[463,48],[163,32]]","false","6","main_T2_Trial","s","img/Fire_Down_Target.gif","[""img/Fire_Up_Distractor.gif"",""img/Fire_Up_Distractor.gif"",""img/Fire_Up_Distractor.gif"",""img/Fire_Up_Distractor.gif"",""img/Fire_Up_Distractor.gif"",""img/Fire_Up_Distractor.gif"",""img/Fire_Up_Distractor.gif"",""img/Fire_Up_Distractor.gif"",""img/Fire_Up_Distractor.gif"",""img/Fire_Up_Distractor.gif"",""img/Fire_Up_Distractor.gif"",""img/Fire_Up_Distractor.gif""]","6","targetDown_distractorsUp"
"","","","","","html-keyboard-response","122","288524","0.0-14.0-0.0-0.54","5fbbf3f438be4c025df6cdd4","619531dcf66c91622fa1b861","61959beacd808f9ab6afc206","null","","null","","","","","main_T1_ITI","","","","",""
"","","","","","visual-search-circle","123","290783","0.0-14.0-0.0-1.54","5fbbf3f438be4c025df6cdd4","619531dcf66c91622fa1b861","61959beacd808f9ab6afc206","1225.5999999642372","","s","true","[[397,16],[139,46],[1,267],[88,513],[335,597],[554,458],[582,199]]","false","7","main_T2_Trial","s","img/Fire_Up_Target.gif","[""img/Fire_Down_Distractor.gif"",""img/Fire_Down_Distractor.gif"",""img/Fire_Down_Distractor.gif"",""img/Fire_Down_Distractor.gif"",""img/Fire_Down_Distractor.gif"",""img/Fire_Down_Distractor.gif"",""img/Fire_Down_Distractor.gif"",""img/Fire_Down_Distractor.gif"",""img/Fire_Down_Distractor.gif"",""img/Fire_Down_Distractor.gif"",""img/Fire_Down_Distractor.gif"",""img/Fire_Down_Distractor.gif""]","7","targetUp_distractorsDown"
"","","","","","html-keyboard-response","124","290790","0.0-14.0-0.0-0.55","5fbbf3f438be4c025df6cdd4","619531dcf66c91622fa1b861","61959beacd808f9ab6afc206","null","","null","","","","","main_T1_ITI","","","","",""
"","","","","","visual-search-circle","125","292567","0.0-14.0-0.0-1.55","5fbbf3f438be4c025df6cdd4","619531dcf66c91622fa1b861","61959beacd808f9ab6afc206","758.1000000238419","","s","true","[[173,571],[571,426],[426,28],[28,173]]","false","4","main_T2_Trial","s","img/Fire_Down_Target.gif","[""img/Fire_Up_Distractor.gif"",""img/Fire_Up_Distractor.gif"",""img/Fire_Up_Distractor.gif"",""img/Fire_Up_Distractor.gif"",""img/Fire_Up_Distractor.gif"",""img/Fire_Up_Distractor.gif"",""img/Fire_Up_Distractor.gif"",""img/Fire_Up_Distractor.gif"",""img/Fire_Up_Distractor.gif"",""img/Fire_Up_Distractor.gif"",""img/Fire_Up_Distractor.gif"",""img/Fire_Up_Distractor.gif""]","4","targetDown_distractorsUp"
"","","","","","html-keyboard-response","126","292584","0.0-14.0-0.0-0.56","5fbbf3f438be4c025df6cdd4","619531dcf66c91622fa1b861","61959beacd808f9ab6afc206","null","","null","","","","","main_T1_ITI","","","","",""
"","","","","","visual-search-circle","127","294896","0.0-14.0-0.0-1.56","5fbbf3f438be4c025df6cdd4","619531dcf66c91622fa1b861","61959beacd808f9ab6afc206","1294.800000011921","","d","true","[[0,305],[154,562],[454,557],[599,294],[445,37],[145,42]]","true","6","main_T2_Trial","d","img/Fire_Down_Target.gif","[""img/Fire_Up_Distractor.gif"",""img/Fire_Up_Distractor.gif"",""img/Fire_Up_Distractor.gif"",""img/Fire_Up_Distractor.gif"",""img/Fire_Up_Distractor.gif"",""img/Fire_Up_Distractor.gif"",""img/Fire_Up_Distractor.gif"",""img/Fire_Up_Distractor.gif"",""img/Fire_Up_Distractor.gif"",""img/Fire_Up_Distractor.gif"",""img/Fire_Up_Distractor.gif"",""img/Fire_Up_Distractor.gif""]","6","targetDown_distractorsUp"
"","","","","","html-keyboard-response","128","294899","0.0-14.0-0.0-0.57","5fbbf3f438be4c025df6cdd4","619531dcf66c91622fa1b861","61959beacd808f9ab6afc206","null","","null","","","","","main_T1_ITI","","","","",""
"","","","","","visual-search-circle","129","297298","0.0-14.0-0.0-1.57","5fbbf3f438be4c025df6cdd4","619531dcf66c91622fa1b861","61959beacd808f9ab6afc206","1367.8999999761581","","d","true","[[77,500],[317,599],[545,472],[587,215],[413,22],[153,37],[4,250]]","true","7","main_T2_Trial","d","img/Fire_Up_Target.gif","[""img/Fire_Down_Distractor.gif"",""img/Fire_Down_Distractor.gif"",""img/Fire_Down_Distractor.gif"",""img/Fire_Down_Distractor.gif"",""img/Fire_Down_Distractor.gif"",""img/Fire_Down_Distractor.gif"",""img/Fire_Down_Distractor.gif"",""img/Fire_Down_Distractor.gif"",""img/Fire_Down_Distractor.gif"",""img/Fire_Down_Distractor.gif"",""img/Fire_Down_Distractor.gif"",""img/Fire_Down_Distractor.gif""]","7","targetUp_distractorsDown"
"","","","","","html-keyboard-response","130","297307","0.0-14.0-0.0-0.58","5fbbf3f438be4c025df6cdd4","619531dcf66c91622fa1b861","61959beacd808f9ab6afc206","null","","null","","","","","main_T1_ITI","","","","",""
"","","","","","visual-search-circle","131","299591","0.0-14.0-0.0-1.58","5fbbf3f438be4c025df6cdd4","619531dcf66c91622fa1b861","61959beacd808f9ab6afc206","1263.3999999761581","","d","true","[[476,542],[585,207],[300,0],[14,207],[123,542]]","true","5","main_T2_Trial","d","img/Fire_Up_Target.gif","[""img/Fire_Down_Distractor.gif"",""img/Fire_Down_Distractor.gif"",""img/Fire_Down_Distractor.gif"",""img/Fire_Down_Distractor.gif"",""img/Fire_Down_Distractor.gif"",""img/Fire_Down_Distractor.gif"",""img/Fire_Down_Distractor.gif"",""img/Fire_Down_Distractor.gif"",""img/Fire_Down_Distractor.gif"",""img/Fire_Down_Distractor.gif"",""img/Fire_Down_Distractor.gif"",""img/Fire_Down_Distractor.gif""]","5","targetUp_distractorsDown"
"","","","","","html-keyboard-response","132","300896","0.0-14.0-0.0-0.59","5fbbf3f438be4c025df6cdd4","619531dcf66c91622fa1b861","61959beacd808f9ab6afc206","1303.5","Wow! You've completed 60 out of 160 trials! </p> <p>  </p><p> Take a quick break, then press any key when you're ready to continue."," ","","","","","main_T1_ITI","","","","",""
"","","","","","visual-search-circle","133","302998","0.0-14.0-0.0-1.59","5fbbf3f438be4c025df6cdd4","619531dcf66c91622fa1b861","61959beacd808f9ab6afc206","1075.0999999642372","","s","true","[[25,422],[268,598],[542,476],[574,177],[331,1],[57,123]]","false","6","main_T2_Trial","s","img/Fire_Up_Target.gif","[""img/Fire_Down_Distractor.gif"",""img/Fire_Down_Distractor.gif"",""img/Fire_Down_Distractor.gif"",""img/Fire_Down_Distractor.gif"",""img/Fire_Down_Distractor.gif"",""img/Fire_Down_Distractor.gif"",""img/Fire_Down_Distractor.gif"",""img/Fire_Down_Distractor.gif"",""img/Fire_Down_Distractor.gif"",""img/Fire_Down_Distractor.gif"",""img/Fire_Down_Distractor.gif"",""img/Fire_Down_Distractor.gif""]","6","targetUp_distractorsDown"
"","","","","","html-keyboard-response","134","303018","0.0-14.0-0.0-0.60","5fbbf3f438be4c025df6cdd4","619531dcf66c91622fa1b861","61959beacd808f9ab6afc206","null","","null","","","","","main_T1_ITI","","","","",""
"","","","","","visual-search-circle","135","305075","0.0-14.0-0.0-1.60","5fbbf3f438be4c025df6cdd4","619531dcf66c91622fa1b861","61959beacd808f9ab6afc206","1024.4000000357628","","d","true","[[500,77],[207,14],[6,237],[99,522],[392,585],[593,362]]","true","6","main_T2_Trial","d","img/Fire_Down_Target.gif","[""img/Fire_Up_Distractor.gif"",""img/Fire_Up_Distractor.gif"",""img/Fire_Up_Distractor.gif"",""img/Fire_Up_Distractor.gif"",""img/Fire_Up_Distractor.gif"",""img/Fire_Up_Distractor.gif"",""img/Fire_Up_Distractor.gif"",""img/Fire_Up_Distractor.gif"",""img/Fire_Up_Distractor.gif"",""img/Fire_Up_Distractor.gif"",""img/Fire_Up_Distractor.gif"",""img/Fire_Up_Distractor.gif""]","6","targetDown_distractorsUp"
"","","","","","html-keyboard-response","136","305080","0.0-14.0-0.0-0.61","5fbbf3f438be4c025df6cdd4","619531dcf66c91622fa1b861","61959beacd808f9ab6afc206","null","","null","","","","","main_T1_ITI","","","","",""
"","","","","","visual-search-circle","137","307181","0.0-14.0-0.0-1.61","5fbbf3f438be4c025df6cdd4","619531dcf66c91622fa1b861","61959beacd808f9ab6afc206","1068.3999999761581","","s","true","[[519,95],[276,0],[51,131],[13,389],[191,579],[450,559],[596,343]]","false","7","main_T2_Trial","s","img/Fire_Up_Target.gif","[""img/Fire_Down_Distractor.gif"",""img/Fire_Down_Distractor.gif"",""img/Fire_Down_Distractor.gif"",""img/Fire_Down_Distractor.gif"",""img/Fire_Down_Distractor.gif"",""img/Fire_Down_Distractor.gif"",""img/Fire_Down_Distractor.gif"",""img/Fire_Down_Distractor.gif"",""img/Fire_Down_Distractor.gif"",""img/Fire_Down_Distractor.gif"",""img/Fire_Down_Distractor.gif"",""img/Fire_Down_Distractor.gif""]","7","targetUp_distractorsDown"
"","","","","","html-keyboard-response","138","307186","0.0-14.0-0.0-0.62","5fbbf3f438be4c025df6cdd4","619531dcf66c91622fa1b861","61959beacd808f9ab6afc206","null","","null","","","","","main_T1_ITI","","","","",""
"","","","","","visual-search-circle","139","308959","0.0-14.0-0.0-1.62","5fbbf3f438be4c025df6cdd4","619531dcf66c91622fa1b861","61959beacd808f9ab6afc206","732.1000000238419","","s","true","[[222,589],[450,559],[589,377],[559,150],[377,10],[150,40],[10,222],[40,449]]","false","8","main_T2_Trial","s","img/Fire_Up_Target.gif","[""img/Fire_Down_Distractor.gif"",""img/Fire_Down_Distractor.gif"",""img/Fire_Down_Distractor.gif"",""img/Fire_Down_Distractor.gif"",""img/Fire_Down_Distractor.gif"",""img/Fire_Down_Distractor.gif"",""img/Fire_Down_Distractor.gif"",""img/Fire_Down_Distractor.gif"",""img/Fire_Down_Distractor.gif"",""img/Fire_Down_Distractor.gif"",""img/Fire_Down_Distractor.gif"",""img/Fire_Down_Distractor.gif""]","8","targetUp_distractorsDown"
"","","","","","html-keyboard-response","140","308964","0.0-14.0-0.0-0.63","5fbbf3f438be4c025df6cdd4","619531dcf66c91622fa1b861","61959beacd808f9ab6afc206","null","","null","","","","","main_T1_ITI","","","","",""
"","","","","","visual-search-circle","141","311561","0.0-14.0-0.0-1.63","5fbbf3f438be4c025df6cdd4","619531dcf66c91622fa1b861","61959beacd808f9ab6afc206","1572.8999999761581","","d","true","[[168,569],[467,548],[599,279],[431,30],[132,51],[0,320]]","true","6","main_T2_Trial","d","img/Fire_Up_Target.gif","[""img/Fire_Down_Distractor.gif"",""img/Fire_Down_Distractor.gif"",""img/Fire_Down_Distractor.gif"",""img/Fire_Down_Distractor.gif"",""img/Fire_Down_Distractor.gif"",""img/Fire_Down_Distractor.gif"",""img/Fire_Down_Distractor.gif"",""img/Fire_Down_Distractor.gif"",""img/Fire_Down_Distractor.gif"",""img/Fire_Down_Distractor.gif"",""img/Fire_Down_Distractor.gif"",""img/Fire_Down_Distractor.gif""]","6","targetUp_distractorsDown"
"","","","","","html-keyboard-response","142","311565","0.0-14.0-0.0-0.64","5fbbf3f438be4c025df6cdd4","619531dcf66c91622fa1b861","61959beacd808f9ab6afc206","null","","null","","","","","main_T1_ITI","","","","",""
"","","","","","visual-search-circle","143","313462","0.0-14.0-0.0-1.64","5fbbf3f438be4c025df6cdd4","619531dcf66c91622fa1b861","61959beacd808f9ab6afc206","877","","d","true","[[548,132],[217,11],[0,289],[197,581],[536,484]]","true","5","main_T2_Trial","d","img/Fire_Down_Target.gif","[""img/Fire_Up_Distractor.gif"",""img/Fire_Up_Distractor.gif"",""img/Fire_Up_Distractor.gif"",""img/Fire_Up_Distractor.gif"",""img/Fire_Up_Distractor.gif"",""img/Fire_Up_Distractor.gif"",""img/Fire_Up_Distractor.gif"",""img/Fire_Up_Distractor.gif"",""img/Fire_Up_Distractor.gif"",""img/Fire_Up_Distractor.gif"",""img/Fire_Up_Distractor.gif"",""img/Fire_Up_Distractor.gif""]","5","targetDown_distractorsUp"
"","","","","","html-keyboard-response","144","313466","0.0-14.0-0.0-0.65","5fbbf3f438be4c025df6cdd4","619531dcf66c91622fa1b861","61959beacd808f9ab6afc206","null","","null","","","","","main_T1_ITI","","","","",""
"","","","","","visual-search-circle","145","315401","0.0-14.0-0.0-1.65","5fbbf3f438be4c025df6cdd4","619531dcf66c91622fa1b861","61959beacd808f9ab6afc206","917.7999999523163","","d","true","[[84,91],[91,515],[515,508],[508,84]]","true","4","main_T2_Trial","d","img/Fire_Up_Target.gif","[""img/Fire_Down_Distractor.gif"",""img/Fire_Down_Distractor.gif"",""img/Fire_Down_Distractor.gif"",""img/Fire_Down_Distractor.gif"",""img/Fire_Down_Distractor.gif"",""img/Fire_Down_Distractor.gif"",""img/Fire_Down_Distractor.gif"",""img/Fire_Down_Distractor.gif"",""img/Fire_Down_Distractor.gif"",""img/Fire_Down_Distractor.gif"",""img/Fire_Down_Distractor.gif"",""img/Fire_Down_Distractor.gif""]","4","targetUp_distractorsDown"
"","","","","","html-keyboard-response","146","315407","0.0-14.0-0.0-0.66","5fbbf3f438be4c025df6cdd4","619531dcf66c91622fa1b861","61959beacd808f9ab6afc206","null","","null","","","","","main_T1_ITI","","","","",""
"","","","","","visual-search-circle","147","317272","0.0-14.0-0.0-1.66","5fbbf3f438be4c025df6cdd4","619531dcf66c91622fa1b861","61959beacd808f9ab6afc206","837.8000000119209","","d","true","[[227,591],[454,557],[591,372],[557,145],[372,8],[145,42],[8,227],[42,454]]","true","8","main_T2_Trial","d","img/Fire_Down_Target.gif","[""img/Fire_Up_Distractor.gif"",""img/Fire_Up_Distractor.gif"",""img/Fire_Up_Distractor.gif"",""img/Fire_Up_Distractor.gif"",""img/Fire_Up_Distractor.gif"",""img/Fire_Up_Distractor.gif"",""img/Fire_Up_Distractor.gif"",""img/Fire_Up_Distractor.gif"",""img/Fire_Up_Distractor.gif"",""img/Fire_Up_Distractor.gif"",""img/Fire_Up_Distractor.gif"",""img/Fire_Up_Distractor.gif""]","8","targetDown_distractorsUp"
"","","","","","html-keyboard-response","148","317278","0.0-14.0-0.0-0.67","5fbbf3f438be4c025df6cdd4","619531dcf66c91622fa1b861","61959beacd808f9ab6afc206","null","","null","","","","","main_T1_ITI","","","","",""
"","","","","","visual-search-circle","149","319612","0.0-14.0-0.0-1.67","5fbbf3f438be4c025df6cdd4","619531dcf66c91622fa1b861","61959beacd808f9ab6afc206","1315.699999988079","","s","true","[[436,567],[596,253],[346,3],[32,163],[87,512]]","false","5","main_T2_Trial","s","img/Fire_Down_Target.gif","[""img/Fire_Up_Distractor.gif"",""img/Fire_Up_Distractor.gif"",""img/Fire_Up_Distractor.gif"",""img/Fire_Up_Distractor.gif"",""img/Fire_Up_Distractor.gif"",""img/Fire_Up_Distractor.gif"",""img/Fire_Up_Distractor.gif"",""img/Fire_Up_Distractor.gif"",""img/Fire_Up_Distractor.gif"",""img/Fire_Up_Distractor.gif"",""img/Fire_Up_Distractor.gif"",""img/Fire_Up_Distractor.gif""]","5","targetDown_distractorsUp"
"","","","","","html-keyboard-response","150","319625","0.0-14.0-0.0-0.68","5fbbf3f438be4c025df6cdd4","619531dcf66c91622fa1b861","61959beacd808f9ab6afc206","null","","null","","","","","main_T1_ITI","","","","",""
"","","","","","visual-search-circle","151","321654","0.0-14.0-0.0-1.68","5fbbf3f438be4c025df6cdd4","619531dcf66c91622fa1b861","61959beacd808f9ab6afc206","1004.6999999880791","","d","true","[[542,123],[268,1],[25,177],[57,476],[331,598],[574,422]]","true","6","main_T2_Trial","d","img/Fire_Down_Target.gif","[""img/Fire_Up_Distractor.gif"",""img/Fire_Up_Distractor.gif"",""img/Fire_Up_Distractor.gif"",""img/Fire_Up_Distractor.gif"",""img/Fire_Up_Distractor.gif"",""img/Fire_Up_Distractor.gif"",""img/Fire_Up_Distractor.gif"",""img/Fire_Up_Distractor.gif"",""img/Fire_Up_Distractor.gif"",""img/Fire_Up_Distractor.gif"",""img/Fire_Up_Distractor.gif"",""img/Fire_Up_Distractor.gif""]","6","targetDown_distractorsUp"
"","","","","","html-keyboard-response","152","321664","0.0-14.0-0.0-0.69","5fbbf3f438be4c025df6cdd4","619531dcf66c91622fa1b861","61959beacd808f9ab6afc206","null","","null","","","","","main_T1_ITI","","","","",""
"","","","","","visual-search-circle","153","324168","0.0-14.0-0.0-1.69","5fbbf3f438be4c025df6cdd4","619531dcf66c91622fa1b861","61959beacd808f9ab6afc206","1493.5","","s","true","[[476,542],[542,123],[123,57],[57,476]]","false","4","main_T2_Trial","s","img/Fire_Down_Target.gif","[""img/Fire_Up_Distractor.gif"",""img/Fire_Up_Distractor.gif"",""img/Fire_Up_Distractor.gif"",""img/Fire_Up_Distractor.gif"",""img/Fire_Up_Distractor.gif"",""img/Fire_Up_Distractor.gif"",""img/Fire_Up_Distractor.gif"",""img/Fire_Up_Distractor.gif"",""img/Fire_Up_Distractor.gif"",""img/Fire_Up_Distractor.gif"",""img/Fire_Up_Distractor.gif"",""img/Fire_Up_Distractor.gif""]","4","targetDown_distractorsUp"
"","","","","","html-keyboard-response","154","324194","0.0-14.0-0.0-0.70","5fbbf3f438be4c025df6cdd4","619531dcf66c91622fa1b861","61959beacd808f9ab6afc206","null","","null","","","","","main_T1_ITI","","","","",""
"","","","","","visual-search-circle","155","326469","0.0-14.0-0.0-1.70","5fbbf3f438be4c025df6cdd4","619531dcf66c91622fa1b861","61959beacd808f9ab6afc206","1258.699999988079","","s","true","[[4,247],[75,498],[314,599],[543,475],[588,218],[416,23],[156,36]]","false","7","main_T2_Trial","s","img/Fire_Up_Target.gif","[""img/Fire_Down_Distractor.gif"",""img/Fire_Down_Distractor.gif"",""img/Fire_Down_Distractor.gif"",""img/Fire_Down_Distractor.gif"",""img/Fire_Down_Distractor.gif"",""img/Fire_Down_Distractor.gif"",""img/Fire_Down_Distractor.gif"",""img/Fire_Down_Distractor.gif"",""img/Fire_Down_Distractor.gif"",""img/Fire_Down_Distractor.gif"",""img/Fire_Down_Distractor.gif"",""img/Fire_Down_Distractor.gif""]","7","targetUp_distractorsDown"
"","","","","","html-keyboard-response","156","326490","0.0-14.0-0.0-0.71","5fbbf3f438be4c025df6cdd4","619531dcf66c91622fa1b861","61959beacd808f9ab6afc206","null","","null","","","","","main_T1_ITI","","","","",""
"","","","","","visual-search-circle","157","328651","0.0-14.0-0.0-1.71","5fbbf3f438be4c025df6cdd4","619531dcf66c91622fa1b861","61959beacd808f9ab6afc206","1127.300000011921","","s","true","[[5,357],[161,565],[421,574],[590,376],[540,120],[309,0],[71,105]]","false","7","main_T2_Trial","s","img/Fire_Down_Target.gif","[""img/Fire_Up_Distractor.gif"",""img/Fire_Up_Distractor.gif"",""img/Fire_Up_Distractor.gif"",""img/Fire_Up_Distractor.gif"",""img/Fire_Up_Distractor.gif"",""img/Fire_Up_Distractor.gif"",""img/Fire_Up_Distractor.gif"",""img/Fire_Up_Distractor.gif"",""img/Fire_Up_Distractor.gif"",""img/Fire_Up_Distractor.gif"",""img/Fire_Up_Distractor.gif"",""img/Fire_Up_Distractor.gif""]","7","targetDown_distractorsUp"
"","","","","","html-keyboard-response","158","328662","0.0-14.0-0.0-0.72","5fbbf3f438be4c025df6cdd4","619531dcf66c91622fa1b861","61959beacd808f9ab6afc206","null","","null","","","","","main_T1_ITI","","","","",""
"","","","","","visual-search-circle","159","330733","0.0-14.0-0.0-1.72","5fbbf3f438be4c025df6cdd4","619531dcf66c91622fa1b861","61959beacd808f9ab6afc206","1059.5","","d","true","[[377,589],[589,222],[222,10],[10,377]]","true","4","main_T2_Trial","d","img/Fire_Down_Target.gif","[""img/Fire_Up_Distractor.gif"",""img/Fire_Up_Distractor.gif"",""img/Fire_Up_Distractor.gif"",""img/Fire_Up_Distractor.gif"",""img/Fire_Up_Distractor.gif"",""img/Fire_Up_Distractor.gif"",""img/Fire_Up_Distractor.gif"",""img/Fire_Up_Distractor.gif"",""img/Fire_Up_Distractor.gif"",""img/Fire_Up_Distractor.gif"",""img/Fire_Up_Distractor.gif"",""img/Fire_Up_Distractor.gif""]","4","targetDown_distractorsUp"
"","","","","","html-keyboard-response","160","330739","0.0-14.0-0.0-0.73","5fbbf3f438be4c025df6cdd4","619531dcf66c91622fa1b861","61959beacd808f9ab6afc206","null","","null","","","","","main_T1_ITI","","","","",""
"","","","","","visual-search-circle","161","332798","0.0-14.0-0.0-1.73","5fbbf3f438be4c025df6cdd4","619531dcf66c91622fa1b861","61959beacd808f9ab6afc206","1044.1000000238419","","d","true","[[578,412],[412,21],[21,187],[187,578]]","true","4","main_T2_Trial","d","img/Fire_Down_Target.gif","[""img/Fire_Up_Distractor.gif"",""img/Fire_Up_Distractor.gif"",""img/Fire_Up_Distractor.gif"",""img/Fire_Up_Distractor.gif"",""img/Fire_Up_Distractor.gif"",""img/Fire_Up_Distractor.gif"",""img/Fire_Up_Distractor.gif"",""img/Fire_Up_Distractor.gif"",""img/Fire_Up_Distractor.gif"",""img/Fire_Up_Distractor.gif"",""img/Fire_Up_Distractor.gif"",""img/Fire_Up_Distractor.gif""]","4","targetDown_distractorsUp"
"","","","","","html-keyboard-response","162","332814","0.0-14.0-0.0-0.74","5fbbf3f438be4c025df6cdd4","619531dcf66c91622fa1b861","61959beacd808f9ab6afc206","null","","null","","","","","main_T1_ITI","","","","",""
"","","","","","visual-search-circle","163","334811","0.0-14.0-0.0-1.74","5fbbf3f438be4c025df6cdd4","619531dcf66c91622fa1b861","61959beacd808f9ab6afc206","986.7999999523163","","s","true","[[593,237],[237,6],[6,362],[362,593]]","false","4","main_T2_Trial","s","img/Fire_Up_Target.gif","[""img/Fire_Down_Distractor.gif"",""img/Fire_Down_Distractor.gif"",""img/Fire_Down_Distractor.gif"",""img/Fire_Down_Distractor.gif"",""img/Fire_Down_Distractor.gif"",""img/Fire_Down_Distractor.gif"",""img/Fire_Down_Distractor.gif"",""img/Fire_Down_Distractor.gif"",""img/Fire_Down_Distractor.gif"",""img/Fire_Down_Distractor.gif"",""img/Fire_Down_Distractor.gif"",""img/Fire_Down_Distractor.gif""]","4","targetUp_distractorsDown"
"","","","","","html-keyboard-response","164","334813","0.0-14.0-0.0-0.75","5fbbf3f438be4c025df6cdd4","619531dcf66c91622fa1b861","61959beacd808f9ab6afc206","null","","null","","","","","main_T1_ITI","","","","",""
"","","","","","visual-search-circle","165","337136","0.0-14.0-0.0-1.75","5fbbf3f438be4c025df6cdd4","619531dcf66c91622fa1b861","61959beacd808f9ab6afc206","1295.4000000357628","","d","true","[[564,440],[575,180],[378,10],[122,58],[0,288],[103,526],[355,594]]","true","7","main_T2_Trial","d","img/Fire_Down_Target.gif","[""img/Fire_Up_Distractor.gif"",""img/Fire_Up_Distractor.gif"",""img/Fire_Up_Distractor.gif"",""img/Fire_Up_Distractor.gif"",""img/Fire_Up_Distractor.gif"",""img/Fire_Up_Distractor.gif"",""img/Fire_Up_Distractor.gif"",""img/Fire_Up_Distractor.gif"",""img/Fire_Up_Distractor.gif"",""img/Fire_Up_Distractor.gif"",""img/Fire_Up_Distractor.gif"",""img/Fire_Up_Distractor.gif""]","7","targetDown_distractorsUp"
"","","","","","html-keyboard-response","166","337139","0.0-14.0-0.0-0.76","5fbbf3f438be4c025df6cdd4","619531dcf66c91622fa1b861","61959beacd808f9ab6afc206","null","","null","","","","","main_T1_ITI","","","","",""
"","","","","","visual-search-circle","167","339229","0.0-14.0-0.0-1.76","5fbbf3f438be4c025df6cdd4","619531dcf66c91622fa1b861","61959beacd808f9ab6afc206","1056.699999988079","","s","true","[[484,536],[597,336],[536,115],[336,2],[115,63],[2,263],[63,484],[263,597]]","false","8","main_T2_Trial","s","img/Fire_Down_Target.gif","[""img/Fire_Up_Distractor.gif"",""img/Fire_Up_Distractor.gif"",""img/Fire_Up_Distractor.gif"",""img/Fire_Up_Distractor.gif"",""img/Fire_Up_Distractor.gif"",""img/Fire_Up_Distractor.gif"",""img/Fire_Up_Distractor.gif"",""img/Fire_Up_Distractor.gif"",""img/Fire_Up_Distractor.gif"",""img/Fire_Up_Distractor.gif"",""img/Fire_Up_Distractor.gif"",""img/Fire_Up_Distractor.gif""]","8","targetDown_distractorsUp"
"","","","","","html-keyboard-response","168","339232","0.0-14.0-0.0-0.77","5fbbf3f438be4c025df6cdd4","619531dcf66c91622fa1b861","61959beacd808f9ab6afc206","null","","null","","","","","main_T1_ITI","","","","",""
"","","","","","visual-search-circle","169","341932","0.0-14.0-0.0-1.77","5fbbf3f438be4c025df6cdd4","619531dcf66c91622fa1b861","61959beacd808f9ab6afc206","1667.7999999523163","","s","true","[[154,37],[11,217],[37,445],[217,588],[445,562],[588,382],[562,154],[382,11]]","false","8","main_T2_Trial","s","img/Fire_Up_Target.gif","[""img/Fire_Down_Distractor.gif"",""img/Fire_Down_Distractor.gif"",""img/Fire_Down_Distractor.gif"",""img/Fire_Down_Distractor.gif"",""img/Fire_Down_Distractor.gif"",""img/Fire_Down_Distractor.gif"",""img/Fire_Down_Distractor.gif"",""img/Fire_Down_Distractor.gif"",""img/Fire_Down_Distractor.gif"",""img/Fire_Down_Distractor.gif"",""img/Fire_Down_Distractor.gif"",""img/Fire_Down_Distractor.gif""]","8","targetUp_distractorsDown"
"","","","","","html-keyboard-response","170","341957","0.0-14.0-0.0-0.78","5fbbf3f438be4c025df6cdd4","619531dcf66c91622fa1b861","61959beacd808f9ab6afc206","null","","null","","","","","main_T1_ITI","","","","",""
"","","","","","visual-search-circle","171","344364","0.0-14.0-0.0-1.78","5fbbf3f438be4c025df6cdd4","619531dcf66c91622fa1b861","61959beacd808f9ab6afc206","1384.300000011921","","d","true","[[592,232],[387,13],[95,80],[7,367],[212,586],[504,519]]","true","6","main_T2_Trial","d","img/Fire_Down_Target.gif","[""img/Fire_Up_Distractor.gif"",""img/Fire_Up_Distractor.gif"",""img/Fire_Up_Distractor.gif"",""img/Fire_Up_Distractor.gif"",""img/Fire_Up_Distractor.gif"",""img/Fire_Up_Distractor.gif"",""img/Fire_Up_Distractor.gif"",""img/Fire_Up_Distractor.gif"",""img/Fire_Up_Distractor.gif"",""img/Fire_Up_Distractor.gif"",""img/Fire_Up_Distractor.gif"",""img/Fire_Up_Distractor.gif""]","6","targetDown_distractorsUp"
"","","","","","html-keyboard-response","172","347170","0.0-14.0-0.0-0.79","5fbbf3f438be4c025df6cdd4","619531dcf66c91622fa1b861","61959beacd808f9ab6afc206","2803.399999976158","Wow! You've completed 80 out of 160 trials! </p> <p>  </p><p> Take a quick break, then press any key when you're ready to continue."," ","","","","","main_T1_ITI","","","","",""
"","","","","","visual-search-circle","173","349655","0.0-14.0-0.0-1.79","5fbbf3f438be4c025df6cdd4","619531dcf66c91622fa1b861","61959beacd808f9ab6afc206","1453.300000011921","","d","true","[[232,592],[486,535],[599,300],[487,65],[233,7],[30,169],[29,429]]","true","7","main_T2_Trial","d","img/Fire_Down_Target.gif","[""img/Fire_Up_Distractor.gif"",""img/Fire_Up_Distractor.gif"",""img/Fire_Up_Distractor.gif"",""img/Fire_Up_Distractor.gif"",""img/Fire_Up_Distractor.gif"",""img/Fire_Up_Distractor.gif"",""img/Fire_Up_Distractor.gif"",""img/Fire_Up_Distractor.gif"",""img/Fire_Up_Distractor.gif"",""img/Fire_Up_Distractor.gif"",""img/Fire_Up_Distractor.gif"",""img/Fire_Up_Distractor.gif""]","7","targetDown_distractorsUp"
"","","","","","html-keyboard-response","174","349690","0.0-14.0-0.0-0.80","5fbbf3f438be4c025df6cdd4","619531dcf66c91622fa1b861","61959beacd808f9ab6afc206","null","","null","","","","","main_T1_ITI","","","","",""
"","","","","","visual-search-circle","175","352350","0.0-14.0-0.0-1.80","5fbbf3f438be4c025df6cdd4","619531dcf66c91622fa1b861","61959beacd808f9ab6afc206","1624.699999988079","","s","false","[[145,42],[8,227],[42,454],[227,591],[454,557],[591,372],[557,145],[372,8]]","true","8","main_T2_Trial","d","img/Fire_Up_Target.gif","[""img/Fire_Down_Distractor.gif"",""img/Fire_Down_Distractor.gif"",""img/Fire_Down_Distractor.gif"",""img/Fire_Down_Distractor.gif"",""img/Fire_Down_Distractor.gif"",""img/Fire_Down_Distractor.gif"",""img/Fire_Down_Distractor.gif"",""img/Fire_Down_Distractor.gif"",""img/Fire_Down_Distractor.gif"",""img/Fire_Down_Distractor.gif"",""img/Fire_Down_Distractor.gif"",""img/Fire_Down_Distractor.gif""]","8","targetUp_distractorsDown"
"","","","","","html-keyboard-response","176","352357","0.0-14.0-0.0-0.81","5fbbf3f438be4c025df6cdd4","619531dcf66c91622fa1b861","61959beacd808f9ab6afc206","null","","null","","","","","main_T1_ITI","","","","",""
"","","","","","visual-search-circle","177","354799","0.0-14.0-0.0-1.81","5fbbf3f438be4c025df6cdd4","619531dcf66c91622fa1b861","61959beacd808f9ab6afc206","1390.3999999761581","","s","true","[[5,357],[132,548],[357,594],[548,467],[594,242],[467,51],[242,5],[51,132]]","false","8","main_T2_Trial","s","img/Fire_Up_Target.gif","[""img/Fire_Down_Distractor.gif"",""img/Fire_Down_Distractor.gif"",""img/Fire_Down_Distractor.gif"",""img/Fire_Down_Distractor.gif"",""img/Fire_Down_Distractor.gif"",""img/Fire_Down_Distractor.gif"",""img/Fire_Down_Distractor.gif"",""img/Fire_Down_Distractor.gif"",""img/Fire_Down_Distractor.gif"",""img/Fire_Down_Distractor.gif"",""img/Fire_Down_Distractor.gif"",""img/Fire_Down_Distractor.gif""]","8","targetUp_distractorsDown"
"","","","","","html-keyboard-response","178","354803","0.0-14.0-0.0-0.82","5fbbf3f438be4c025df6cdd4","619531dcf66c91622fa1b861","61959beacd808f9ab6afc206","null","","null","","","","","main_T1_ITI","","","","",""
"","","","","","visual-search-circle","179","356972","0.0-14.0-0.0-1.82","5fbbf3f438be4c025df6cdd4","619531dcf66c91622fa1b861","61959beacd808f9ab6afc206","1148.199999988079","","d","true","[[77,500],[284,599],[500,522],[599,315],[522,99],[315,0],[99,77],[0,284]]","true","8","main_T2_Trial","d","img/Fire_Up_Target.gif","[""img/Fire_Down_Distractor.gif"",""img/Fire_Down_Distractor.gif"",""img/Fire_Down_Distractor.gif"",""img/Fire_Down_Distractor.gif"",""img/Fire_Down_Distractor.gif"",""img/Fire_Down_Distractor.gif"",""img/Fire_Down_Distractor.gif"",""img/Fire_Down_Distractor.gif"",""img/Fire_Down_Distractor.gif"",""img/Fire_Down_Distractor.gif"",""img/Fire_Down_Distractor.gif"",""img/Fire_Down_Distractor.gif""]","8","targetUp_distractorsDown"
"","","","","","html-keyboard-response","180","356976","0.0-14.0-0.0-0.83","5fbbf3f438be4c025df6cdd4","619531dcf66c91622fa1b861","61959beacd808f9ab6afc206","null","","null","","","","","main_T1_ITI","","","","",""
"","","","","","visual-search-circle","181","359171","0.0-14.0-0.0-1.83","5fbbf3f438be4c025df6cdd4","619531dcf66c91622fa1b861","61959beacd808f9ab6afc206","1163","","d","true","[[115,63],[63,484],[484,536],[536,115]]","true","4","main_T2_Trial","d","img/Fire_Up_Target.gif","[""img/Fire_Down_Distractor.gif"",""img/Fire_Down_Distractor.gif"",""img/Fire_Down_Distractor.gif"",""img/Fire_Down_Distractor.gif"",""img/Fire_Down_Distractor.gif"",""img/Fire_Down_Distractor.gif"",""img/Fire_Down_Distractor.gif"",""img/Fire_Down_Distractor.gif"",""img/Fire_Down_Distractor.gif"",""img/Fire_Down_Distractor.gif"",""img/Fire_Down_Distractor.gif"",""img/Fire_Down_Distractor.gif""]","4","targetUp_distractorsDown"
"","","","","","html-keyboard-response","182","359192","0.0-14.0-0.0-0.84","5fbbf3f438be4c025df6cdd4","619531dcf66c91622fa1b861","61959beacd808f9ab6afc206","null","","null","","","","","main_T1_ITI","","","","",""
"","","","","","visual-search-circle","183","361437","0.0-14.0-0.0-1.84","5fbbf3f438be4c025df6cdd4","619531dcf66c91622fa1b861","61959beacd808f9ab6afc206","1227.5","","s","true","[[545,472],[595,247],[472,54],[247,4],[54,127],[4,352],[127,545],[352,595]]","false","8","main_T2_Trial","s","img/Fire_Down_Target.gif","[""img/Fire_Up_Distractor.gif"",""img/Fire_Up_Distractor.gif"",""img/Fire_Up_Distractor.gif"",""img/Fire_Up_Distractor.gif"",""img/Fire_Up_Distractor.gif"",""img/Fire_Up_Distractor.gif"",""img/Fire_Up_Distractor.gif"",""img/Fire_Up_Distractor.gif"",""img/Fire_Up_Distractor.gif"",""img/Fire_Up_Distractor.gif"",""img/Fire_Up_Distractor.gif"",""img/Fire_Up_Distractor.gif""]","8","targetDown_distractorsUp"
"","","","","","html-keyboard-response","184","361447","0.0-14.0-0.0-0.85","5fbbf3f438be4c025df6cdd4","619531dcf66c91622fa1b861","61959beacd808f9ab6afc206","null","","null","","","","","main_T1_ITI","","","","",""
"","","","","","visual-search-circle","185","363632","0.0-14.0-0.0-1.85","5fbbf3f438be4c025df6cdd4","619531dcf66c91622fa1b861","61959beacd808f9ab6afc206","1163","","d","true","[[593,362],[551,136],[362,6],[136,48],[6,237],[48,463],[237,593],[463,551]]","true","8","main_T2_Trial","d","img/Fire_Down_Target.gif","[""img/Fire_Up_Distractor.gif"",""img/Fire_Up_Distractor.gif"",""img/Fire_Up_Distractor.gif"",""img/Fire_Up_Distractor.gif"",""img/Fire_Up_Distractor.gif"",""img/Fire_Up_Distractor.gif"",""img/Fire_Up_Distractor.gif"",""img/Fire_Up_Distractor.gif"",""img/Fire_Up_Distractor.gif"",""img/Fire_Up_Distractor.gif"",""img/Fire_Up_Distractor.gif"",""img/Fire_Up_Distractor.gif""]","8","targetDown_distractorsUp"
"","","","","","html-keyboard-response","186","363639","0.0-14.0-0.0-0.86","5fbbf3f438be4c025df6cdd4","619531dcf66c91622fa1b861","61959beacd808f9ab6afc206","null","","null","","","","","main_T1_ITI","","","","",""
"","","","","","visual-search-circle","187","365597","0.0-14.0-0.0-1.86","5fbbf3f438be4c025df6cdd4","619531dcf66c91622fa1b861","61959beacd808f9ab6afc206","923.7999999523163","","s","true","[[392,585],[580,405],[557,146],[340,2],[92,83],[1,326],[134,550]]","false","7","main_T2_Trial","s","img/Fire_Down_Target.gif","[""img/Fire_Up_Distractor.gif"",""img/Fire_Up_Distractor.gif"",""img/Fire_Up_Distractor.gif"",""img/Fire_Up_Distractor.gif"",""img/Fire_Up_Distractor.gif"",""img/Fire_Up_Distractor.gif"",""img/Fire_Up_Distractor.gif"",""img/Fire_Up_Distractor.gif"",""img/Fire_Up_Distractor.gif"",""img/Fire_Up_Distractor.gif"",""img/Fire_Up_Distractor.gif"",""img/Fire_Up_Distractor.gif""]","7","targetDown_distractorsUp"
"","","","","","html-keyboard-response","188","365615","0.0-14.0-0.0-0.87","5fbbf3f438be4c025df6cdd4","619531dcf66c91622fa1b861","61959beacd808f9ab6afc206","null","","null","","","","","main_T1_ITI","","","","",""
"","","","","","visual-search-circle","189","367666","0.0-14.0-0.0-1.87","5fbbf3f438be4c025df6cdd4","619531dcf66c91622fa1b861","61959beacd808f9ab6afc206","1033.6000000238419","","d","true","[[422,574],[598,331],[476,57],[177,25],[1,268],[123,542]]","true","6","main_T2_Trial","d","img/Fire_Up_Target.gif","[""img/Fire_Down_Distractor.gif"",""img/Fire_Down_Distractor.gif"",""img/Fire_Down_Distractor.gif"",""img/Fire_Down_Distractor.gif"",""img/Fire_Down_Distractor.gif"",""img/Fire_Down_Distractor.gif"",""img/Fire_Down_Distractor.gif"",""img/Fire_Down_Distractor.gif"",""img/Fire_Down_Distractor.gif"",""img/Fire_Down_Distractor.gif"",""img/Fire_Down_Distractor.gif"",""img/Fire_Down_Distractor.gif""]","6","targetUp_distractorsDown"
"","","","","","html-keyboard-response","190","367672","0.0-14.0-0.0-0.88","5fbbf3f438be4c025df6cdd4","619531dcf66c91622fa1b861","61959beacd808f9ab6afc206","null","","null","","","","","main_T1_ITI","","","","",""
"","","","","","visual-search-circle","191","369942","0.0-14.0-0.0-1.88","5fbbf3f438be4c025df6cdd4","619531dcf66c91622fa1b861","61959beacd808f9ab6afc206","1243.5","","d","true","[[132,548],[357,594],[548,467],[594,242],[467,51],[242,5],[51,132],[5,357]]","true","8","main_T2_Trial","d","img/Fire_Down_Target.gif","[""img/Fire_Up_Distractor.gif"",""img/Fire_Up_Distractor.gif"",""img/Fire_Up_Distractor.gif"",""img/Fire_Up_Distractor.gif"",""img/Fire_Up_Distractor.gif"",""img/Fire_Up_Distractor.gif"",""img/Fire_Up_Distractor.gif"",""img/Fire_Up_Distractor.gif"",""img/Fire_Up_Distractor.gif"",""img/Fire_Up_Distractor.gif"",""img/Fire_Up_Distractor.gif"",""img/Fire_Up_Distractor.gif""]","8","targetDown_distractorsUp"
"","","","","","html-keyboard-response","192","369953","0.0-14.0-0.0-0.89","5fbbf3f438be4c025df6cdd4","619531dcf66c91622fa1b861","61959beacd808f9ab6afc206","null","","null","","","","","main_T1_ITI","","","","",""
"","","","","","visual-search-circle","193","372173","0.0-14.0-0.0-1.89","5fbbf3f438be4c025df6cdd4","619531dcf66c91622fa1b861","61959beacd808f9ab6afc206","1204.4000000357628","","s","true","[[7,367],[367,592],[592,232],[232,7]]","false","4","main_T2_Trial","s","img/Fire_Up_Target.gif","[""img/Fire_Down_Distractor.gif"",""img/Fire_Down_Distractor.gif"",""img/Fire_Down_Distractor.gif"",""img/Fire_Down_Distractor.gif"",""img/Fire_Down_Distractor.gif"",""img/Fire_Down_Distractor.gif"",""img/Fire_Down_Distractor.gif"",""img/Fire_Down_Distractor.gif"",""img/Fire_Down_Distractor.gif"",""img/Fire_Down_Distractor.gif"",""img/Fire_Down_Distractor.gif"",""img/Fire_Down_Distractor.gif""]","4","targetUp_distractorsDown"
"","","","","","html-keyboard-response","194","372182","0.0-14.0-0.0-0.90","5fbbf3f438be4c025df6cdd4","619531dcf66c91622fa1b861","61959beacd808f9ab6afc206","null","","null","","","","","main_T1_ITI","","","","",""
"","","","","","visual-search-circle","195","374170","0.0-14.0-0.0-1.90","5fbbf3f438be4c025df6cdd4","619531dcf66c91622fa1b861","61959beacd808f9ab6afc206","959.2000000476837","","d","true","[[136,48],[6,237],[48,463],[237,593],[463,551],[593,362],[551,136],[362,6]]","true","8","main_T2_Trial","d","img/Fire_Down_Target.gif","[""img/Fire_Up_Distractor.gif"",""img/Fire_Up_Distractor.gif"",""img/Fire_Up_Distractor.gif"",""img/Fire_Up_Distractor.gif"",""img/Fire_Up_Distractor.gif"",""img/Fire_Up_Distractor.gif"",""img/Fire_Up_Distractor.gif"",""img/Fire_Up_Distractor.gif"",""img/Fire_Up_Distractor.gif"",""img/Fire_Up_Distractor.gif"",""img/Fire_Up_Distractor.gif"",""img/Fire_Up_Distractor.gif""]","8","targetDown_distractorsUp"
"","","","","","html-keyboard-response","196","374187","0.0-14.0-0.0-0.91","5fbbf3f438be4c025df6cdd4","619531dcf66c91622fa1b861","61959beacd808f9ab6afc206","null","","null","","","","","main_T1_ITI","","","","",""
"","","","","","visual-search-circle","197","378158","0.0-14.0-0.0-1.91","5fbbf3f438be4c025df6cdd4","619531dcf66c91622fa1b861","61959beacd808f9ab6afc206","2951.199999988079","","d","true","[[10,222],[222,589],[589,377],[377,10]]","true","4","main_T2_Trial","d","img/Fire_Up_Target.gif","[""img/Fire_Down_Distractor.gif"",""img/Fire_Down_Distractor.gif"",""img/Fire_Down_Distractor.gif"",""img/Fire_Down_Distractor.gif"",""img/Fire_Down_Distractor.gif"",""img/Fire_Down_Distractor.gif"",""img/Fire_Down_Distractor.gif"",""img/Fire_Down_Distractor.gif"",""img/Fire_Down_Distractor.gif"",""img/Fire_Down_Distractor.gif"",""img/Fire_Down_Distractor.gif"",""img/Fire_Down_Distractor.gif""]","4","targetUp_distractorsDown"
"","","","","","html-keyboard-response","198","378171","0.0-14.0-0.0-0.92","5fbbf3f438be4c025df6cdd4","619531dcf66c91622fa1b861","61959beacd808f9ab6afc206","null","","null","","","","","main_T1_ITI","","","","",""
"","","","","","visual-search-circle","199","380249","0.0-14.0-0.0-1.92","5fbbf3f438be4c025df6cdd4","619531dcf66c91622fa1b861","61959beacd808f9ab6afc206","1060.1000000238419","","s","true","[[177,25],[25,422],[422,574],[574,177]]","false","4","main_T2_Trial","s","img/Fire_Up_Target.gif","[""img/Fire_Down_Distractor.gif"",""img/Fire_Down_Distractor.gif"",""img/Fire_Down_Distractor.gif"",""img/Fire_Down_Distractor.gif"",""img/Fire_Down_Distractor.gif"",""img/Fire_Down_Distractor.gif"",""img/Fire_Down_Distractor.gif"",""img/Fire_Down_Distractor.gif"",""img/Fire_Down_Distractor.gif"",""img/Fire_Down_Distractor.gif"",""img/Fire_Down_Distractor.gif"",""img/Fire_Down_Distractor.gif""]","4","targetUp_distractorsDown"
"","","","","","html-keyboard-response","200","380251","0.0-14.0-0.0-0.93","5fbbf3f438be4c025df6cdd4","619531dcf66c91622fa1b861","61959beacd808f9ab6afc206","null","","null","","","","","main_T1_ITI","","","","",""
"","","","","","visual-search-circle","201","383724","0.0-14.0-0.0-1.93","5fbbf3f438be4c025df6cdd4","619531dcf66c91622fa1b861","61959beacd808f9ab6afc206","2446.899999976158","","s","true","[[73,496],[312,599],[542,476],[589,220],[418,24],[158,35],[4,245]]","false","7","main_T2_Trial","s","img/Fire_Up_Target.gif","[""img/Fire_Down_Distractor.gif"",""img/Fire_Down_Distractor.gif"",""img/Fire_Down_Distractor.gif"",""img/Fire_Down_Distractor.gif"",""img/Fire_Down_Distractor.gif"",""img/Fire_Down_Distractor.gif"",""img/Fire_Down_Distractor.gif"",""img/Fire_Down_Distractor.gif"",""img/Fire_Down_Distractor.gif"",""img/Fire_Down_Distractor.gif"",""img/Fire_Down_Distractor.gif"",""img/Fire_Down_Distractor.gif""]","7","targetUp_distractorsDown"
"","","","","","html-keyboard-response","202","383744","0.0-14.0-0.0-0.94","5fbbf3f438be4c025df6cdd4","619531dcf66c91622fa1b861","61959beacd808f9ab6afc206","null","","null","","","","","main_T1_ITI","","","","",""
"","","","","","visual-search-circle","203","386176","0.0-14.0-0.0-1.94","5fbbf3f438be4c025df6cdd4","619531dcf66c91622fa1b861","61959beacd808f9ab6afc206","1417.7000000476837","","s","true","[[320,0],[0,279],[279,599],[599,320]]","false","4","main_T2_Trial","s","img/Fire_Down_Target.gif","[""img/Fire_Up_Distractor.gif"",""img/Fire_Up_Distractor.gif"",""img/Fire_Up_Distractor.gif"",""img/Fire_Up_Distractor.gif"",""img/Fire_Up_Distractor.gif"",""img/Fire_Up_Distractor.gif"",""img/Fire_Up_Distractor.gif"",""img/Fire_Up_Distractor.gif"",""img/Fire_Up_Distractor.gif"",""img/Fire_Up_Distractor.gif"",""img/Fire_Up_Distractor.gif"",""img/Fire_Up_Distractor.gif""]","4","targetDown_distractorsUp"
"","","","","","html-keyboard-response","204","386180","0.0-14.0-0.0-0.95","5fbbf3f438be4c025df6cdd4","619531dcf66c91622fa1b861","61959beacd808f9ab6afc206","null","","null","","","","","main_T1_ITI","","","","",""
"","","","","","visual-search-circle","205","388461","0.0-14.0-0.0-1.95","5fbbf3f438be4c025df6cdd4","619531dcf66c91622fa1b861","61959beacd808f9ab6afc206","1257","","s","true","[[136,48],[0,315],[163,567],[463,551],[599,284],[436,32]]","false","6","main_T2_Trial","s","img/Fire_Up_Target.gif","[""img/Fire_Down_Distractor.gif"",""img/Fire_Down_Distractor.gif"",""img/Fire_Down_Distractor.gif"",""img/Fire_Down_Distractor.gif"",""img/Fire_Down_Distractor.gif"",""img/Fire_Down_Distractor.gif"",""img/Fire_Down_Distractor.gif"",""img/Fire_Down_Distractor.gif"",""img/Fire_Down_Distractor.gif"",""img/Fire_Down_Distractor.gif"",""img/Fire_Down_Distractor.gif"",""img/Fire_Down_Distractor.gif""]","6","targetUp_distractorsDown"
"","","","","","html-keyboard-response","206","388470","0.0-14.0-0.0-0.96","5fbbf3f438be4c025df6cdd4","619531dcf66c91622fa1b861","61959beacd808f9ab6afc206","null","","null","","","","","main_T1_ITI","","","","",""
"","","","","","visual-search-circle","207","390474","0.0-14.0-0.0-1.96","5fbbf3f438be4c025df6cdd4","619531dcf66c91622fa1b861","61959beacd808f9ab6afc206","977.5","","d","true","[[508,84],[261,2],[43,144],[18,404],[205,584],[464,551],[598,328]]","true","7","main_T2_Trial","d","img/Fire_Up_Target.gif","[""img/Fire_Down_Distractor.gif"",""img/Fire_Down_Distractor.gif"",""img/Fire_Down_Distractor.gif"",""img/Fire_Down_Distractor.gif"",""img/Fire_Down_Distractor.gif"",""img/Fire_Down_Distractor.gif"",""img/Fire_Down_Distractor.gif"",""img/Fire_Down_Distractor.gif"",""img/Fire_Down_Distractor.gif"",""img/Fire_Down_Distractor.gif"",""img/Fire_Down_Distractor.gif"",""img/Fire_Down_Distractor.gif""]","7","targetUp_distractorsDown"
"","","","","","html-keyboard-response","208","390491","0.0-14.0-0.0-0.97","5fbbf3f438be4c025df6cdd4","619531dcf66c91622fa1b861","61959beacd808f9ab6afc206","null","","null","","","","","main_T1_ITI","","","","",""
"","","","","","visual-search-circle","209","392347","0.0-14.0-0.0-1.97","5fbbf3f438be4c025df6cdd4","619531dcf66c91622fa1b861","61959beacd808f9ab6afc206","825","","s","true","[[569,168],[397,16],[168,30],[16,202],[30,431],[202,583],[431,569],[583,397]]","false","8","main_T2_Trial","s","img/Fire_Up_Target.gif","[""img/Fire_Down_Distractor.gif"",""img/Fire_Down_Distractor.gif"",""img/Fire_Down_Distractor.gif"",""img/Fire_Down_Distractor.gif"",""img/Fire_Down_Distractor.gif"",""img/Fire_Down_Distractor.gif"",""img/Fire_Down_Distractor.gif"",""img/Fire_Down_Distractor.gif"",""img/Fire_Down_Distractor.gif"",""img/Fire_Down_Distractor.gif"",""img/Fire_Down_Distractor.gif"",""img/Fire_Down_Distractor.gif""]","8","targetUp_distractorsDown"
"","","","","","html-keyboard-response","210","392352","0.0-14.0-0.0-0.98","5fbbf3f438be4c025df6cdd4","619531dcf66c91622fa1b861","61959beacd808f9ab6afc206","null","","null","","","","","main_T1_ITI","","","","",""
"","","","","","visual-search-circle","211","394823","0.0-14.0-0.0-1.98","5fbbf3f438be4c025df6cdd4","619531dcf66c91622fa1b861","61959beacd808f9ab6afc206","1451.9000000357628","","d","true","[[599,305],[305,0],[0,294],[294,599]]","true","4","main_T2_Trial","d","img/Fire_Down_Target.gif","[""img/Fire_Up_Distractor.gif"",""img/Fire_Up_Distractor.gif"",""img/Fire_Up_Distractor.gif"",""img/Fire_Up_Distractor.gif"",""img/Fire_Up_Distractor.gif"",""img/Fire_Up_Distractor.gif"",""img/Fire_Up_Distractor.gif"",""img/Fire_Up_Distractor.gif"",""img/Fire_Up_Distractor.gif"",""img/Fire_Up_Distractor.gif"",""img/Fire_Up_Distractor.gif"",""img/Fire_Up_Distractor.gif""]","4","targetDown_distractorsUp"
"","","","","","html-keyboard-response","212","396126","0.0-14.0-0.0-0.99","5fbbf3f438be4c025df6cdd4","619531dcf66c91622fa1b861","61959beacd808f9ab6afc206","1300.7999999523163","Wow! You've completed 100 out of 160 trials! </p> <p>  </p><p> Take a quick break, then press any key when you're ready to continue."," ","","","","","main_T1_ITI","","","","",""
"","","","","","visual-search-circle","213","398115","0.0-14.0-0.0-1.99","5fbbf3f438be4c025df6cdd4","619531dcf66c91622fa1b861","61959beacd808f9ab6afc206","975.1999999880791","","s","true","[[564,159],[159,35],[35,440],[440,564]]","false","4","main_T2_Trial","s","img/Fire_Down_Target.gif","[""img/Fire_Up_Distractor.gif"",""img/Fire_Up_Distractor.gif"",""img/Fire_Up_Distractor.gif"",""img/Fire_Up_Distractor.gif"",""img/Fire_Up_Distractor.gif"",""img/Fire_Up_Distractor.gif"",""img/Fire_Up_Distractor.gif"",""img/Fire_Up_Distractor.gif"",""img/Fire_Up_Distractor.gif"",""img/Fire_Up_Distractor.gif"",""img/Fire_Up_Distractor.gif"",""img/Fire_Up_Distractor.gif""]","4","targetDown_distractorsUp"
"","","","","","html-keyboard-response","214","398141","0.0-14.0-0.0-0.100","5fbbf3f438be4c025df6cdd4","619531dcf66c91622fa1b861","61959beacd808f9ab6afc206","null","","null","","","","","main_T1_ITI","","","","",""
"","","","","","visual-search-circle","215","400289","0.0-14.0-0.0-1.100","5fbbf3f438be4c025df6cdd4","619531dcf66c91622fa1b861","61959beacd808f9ab6afc206","1122.300000011921","","d","false","[[586,212],[410,21],[150,39],[3,254],[79,503],[321,599],[547,469]]","false","7","main_T2_Trial","s","img/Fire_Down_Target.gif","[""img/Fire_Up_Distractor.gif"",""img/Fire_Up_Distractor.gif"",""img/Fire_Up_Distractor.gif"",""img/Fire_Up_Distractor.gif"",""img/Fire_Up_Distractor.gif"",""img/Fire_Up_Distractor.gif"",""img/Fire_Up_Distractor.gif"",""img/Fire_Up_Distractor.gif"",""img/Fire_Up_Distractor.gif"",""img/Fire_Up_Distractor.gif"",""img/Fire_Up_Distractor.gif"",""img/Fire_Up_Distractor.gif""]","7","targetDown_distractorsUp"
"","","","","","html-keyboard-response","216","400302","0.0-14.0-0.0-0.101","5fbbf3f438be4c025df6cdd4","619531dcf66c91622fa1b861","61959beacd808f9ab6afc206","null","","null","","","","","main_T1_ITI","","","","",""
