"success","timeout","failed_images","failed_audio","failed_video","trial_type","trial_index","time_elapsed","internal_node_id","subject_id","study_id","session_id","rt","stimulus","response","correct","locations","target_present","set_size","task","correct_response","target","foilCM","setSizeCM","searchCondition"
"true","false","[]","[]","[]","preload","0","36598","0.0-0.0","5fbeef08fae48b16613fbe94","619531dcf66c91622fa1b861","619597cfdbf55536a91ea0f8","","","","","","","","","","","","",""
"true","","","","","fullscreen","1","45337","0.0-1.0","5fbeef08fae48b16613fbe94","619531dcf66c91622fa1b861","619597cfdbf55536a91ea0f8","","","","","","","","","","","","",""
"","","","","","html-keyboard-response","2","55780","0.0-2.0","5fbeef08fae48b16613fbe94","619531dcf66c91622fa1b861","619597cfdbf55536a91ea0f8","10443","What a beautiful Thursday to do some awesome science! </p> <p>  </p><p> </p>
    By completing this survey or questionnaire, you are consenting to be in this research study. </p>
    Your participation is voluntary and you can stop at any time.
    <p> [Press any key to continue.] </p>
    
    "," ","","","","","","","","","",""
"","","","","","video-keyboard-response","3","81020","0.0-3.0","5fbeef08fae48b16613fbe94","619531dcf66c91622fa1b861","619597cfdbf55536a91ea0f8","25237.299999999814","[""video/TaskInstructions.mp4""]"," ","","","","","","","","","",""
"","","","","","html-keyboard-response","4","86168","0.0-4.0","5fbeef08fae48b16613fbe94","619531dcf66c91622fa1b861","619597cfdbf55536a91ea0f8","5148.700000000186","
    <p>First, we're going to do a few practice trials to make sure you understand the task. You will recieve feedback on each trial. </p>
    <p>[Press any key to begin the familiarization phase.]</p>
    "," ","","","","","","","","","",""
"","","","","","visual-search-circle","5","91811","0.0-5.0-0.0","5fbeef08fae48b16613fbe94","619531dcf66c91622fa1b861","619597cfdbf55536a91ea0f8","4589.700000000186","","s","false","[[436,567],[567,163],[163,32],[32,436]]","true","4","training","d","","","",""
"","","","","","html-keyboard-response","6","94464","0.0-6.0","5fbeef08fae48b16613fbe94","619531dcf66c91622fa1b861","619597cfdbf55536a91ea0f8","2652.300000000745"," <div style='float: center;'><img src='img/feedbackWrong.png'></img> </div> "," ","","","","","","","","","",""
"","","","","","visual-search-circle","7","97108","0.0-7.0-0.0","5fbeef08fae48b16613fbe94","619531dcf66c91622fa1b861","619597cfdbf55536a91ea0f8","1642.2000000001863","","d","false","[[554,141],[141,45],[45,458],[458,554]]","false","4","training","s","","","",""
"","","","","","html-keyboard-response","8","98522","0.0-8.0","5fbeef08fae48b16613fbe94","619531dcf66c91622fa1b861","619597cfdbf55536a91ea0f8","1412.7999999998137"," <div style='float: center;'><img src='img/feedbackWrong.png'></img> </div> "," ","","","","","","","","","",""
"","","","","","visual-search-circle","9","101165","0.0-9.0-0.0","5fbeef08fae48b16613fbe94","619531dcf66c91622fa1b861","619597cfdbf55536a91ea0f8","1638.2000000001863","","d","false","[[578,187],[341,2],[63,115],[21,412],[258,597],[536,484]]","false","6","training","s","","","",""
"","","","","","html-keyboard-response","10","102518","0.0-10.0","5fbeef08fae48b16613fbe94","619531dcf66c91622fa1b861","619597cfdbf55536a91ea0f8","1352.7000000001863"," <div style='float: center;'><img src='img/feedbackWrong.png'></img> </div> "," ","","","","","","","","","",""
"","","","","","visual-search-circle","11","104368","0.0-11.0-0.0","5fbeef08fae48b16613fbe94","619531dcf66c91622fa1b861","619597cfdbf55536a91ea0f8","845","","s","false","[[519,95],[310,0],[95,80],[0,289],[80,504],[289,599],[504,519],[599,310]]","true","8","training","d","","","",""
"","","","","","html-keyboard-response","12","105109","0.0-12.0","5fbeef08fae48b16613fbe94","619531dcf66c91622fa1b861","619597cfdbf55536a91ea0f8","739.7000000001863"," <div style='float: center;'><img src='img/feedbackWrong.png'></img> </div> ","s","","","","","","","","","",""
"","","","","","video-keyboard-response","13","105423","0.0-13.0","5fbeef08fae48b16613fbe94","619531dcf66c91622fa1b861","619597cfdbf55536a91ea0f8","312.29999999981374","[""video/endTraining.mp4""]"," ","","","","","","","","","",""
"","","","","","html-keyboard-response","14","105425","0.0-14.0-0.0-0.0","5fbeef08fae48b16613fbe94","619531dcf66c91622fa1b861","619597cfdbf55536a91ea0f8","null","","null","","","","","main_T1_ITI","","","","",""
"","","","","","visual-search-circle","15","106989","0.0-14.0-0.0-1.0","5fbeef08fae48b16613fbe94","619531dcf66c91622fa1b861","619597cfdbf55536a91ea0f8","553.5","","s","false","[[352,4],[4,247],[247,595],[595,352]]","true","4","main_T2_Trial","d","img/Fire_Down_Target.gif","[""img/Fire_Up_Distractor.gif"",""img/Fire_Up_Distractor.gif"",""img/Fire_Up_Distractor.gif"",""img/Fire_Up_Distractor.gif"",""img/Fire_Up_Distractor.gif"",""img/Fire_Up_Distractor.gif"",""img/Fire_Up_Distractor.gif"",""img/Fire_Up_Distractor.gif"",""img/Fire_Up_Distractor.gif"",""img/Fire_Up_Distractor.gif"",""img/Fire_Up_Distractor.gif"",""img/Fire_Up_Distractor.gif""]","4","targetDown_distractorsUp"
"","","","","","html-keyboard-response","16","106990","0.0-14.0-0.0-0.1","5fbeef08fae48b16613fbe94","619531dcf66c91622fa1b861","619597cfdbf55536a91ea0f8","null","","null","","","","","main_T1_ITI","","","","",""
"","","","","","visual-search-circle","17","109392","0.0-14.0-0.0-1.1","5fbeef08fae48b16613fbe94","619531dcf66c91622fa1b861","619597cfdbf55536a91ea0f8","1393.7000000001863","","d","false","[[598,326],[529,107],[326,1],[107,70],[1,273],[70,492],[273,598],[492,529]]","false","8","main_T2_Trial","s","img/Fire_Up_Target.gif","[""img/Fire_Down_Distractor.gif"",""img/Fire_Down_Distractor.gif"",""img/Fire_Down_Distractor.gif"",""img/Fire_Down_Distractor.gif"",""img/Fire_Down_Distractor.gif"",""img/Fire_Down_Distractor.gif"",""img/Fire_Down_Distractor.gif"",""img/Fire_Down_Distractor.gif"",""img/Fire_Down_Distractor.gif"",""img/Fire_Down_Distractor.gif"",""img/Fire_Down_Distractor.gif"",""img/Fire_Down_Distractor.gif""]","8","targetUp_distractorsDown"
"","","","","","html-keyboard-response","18","109393","0.0-14.0-0.0-0.2","5fbeef08fae48b16613fbe94","619531dcf66c91622fa1b861","619597cfdbf55536a91ea0f8","null","","null","","","","","main_T1_ITI","","","","",""
"","","","","","visual-search-circle","19","112048","0.0-14.0-0.0-1.2","5fbeef08fae48b16613fbe94","619531dcf66c91622fa1b861","619597cfdbf55536a91ea0f8","1650","","s","false","[[392,14],[163,32],[14,207],[32,436],[207,585],[436,567],[585,392],[567,163]]","true","8","main_T2_Trial","d","img/Fire_Down_Target.gif","[""img/Fire_Up_Distractor.gif"",""img/Fire_Up_Distractor.gif"",""img/Fire_Up_Distractor.gif"",""img/Fire_Up_Distractor.gif"",""img/Fire_Up_Distractor.gif"",""img/Fire_Up_Distractor.gif"",""img/Fire_Up_Distractor.gif"",""img/Fire_Up_Distractor.gif"",""img/Fire_Up_Distractor.gif"",""img/Fire_Up_Distractor.gif"",""img/Fire_Up_Distractor.gif"",""img/Fire_Up_Distractor.gif""]","8","targetDown_distractorsUp"
"","","","","","html-keyboard-response","20","112050","0.0-14.0-0.0-0.3","5fbeef08fae48b16613fbe94","619531dcf66c91622fa1b861","619597cfdbf55536a91ea0f8","null","","null","","","","","main_T1_ITI","","","","",""
"","","","","","visual-search-circle","21","116121","0.0-14.0-0.0-1.3","5fbeef08fae48b16613fbe94","619531dcf66c91622fa1b861","619597cfdbf55536a91ea0f8","3068.4000000003725","","d","false","[[284,0],[0,315],[315,599],[599,284]]","false","4","main_T2_Trial","s","img/Fire_Down_Target.gif","[""img/Fire_Up_Distractor.gif"",""img/Fire_Up_Distractor.gif"",""img/Fire_Up_Distractor.gif"",""img/Fire_Up_Distractor.gif"",""img/Fire_Up_Distractor.gif"",""img/Fire_Up_Distractor.gif"",""img/Fire_Up_Distractor.gif"",""img/Fire_Up_Distractor.gif"",""img/Fire_Up_Distractor.gif"",""img/Fire_Up_Distractor.gif"",""img/Fire_Up_Distractor.gif"",""img/Fire_Up_Distractor.gif""]","4","targetDown_distractorsUp"
"","","","","","html-keyboard-response","22","116123","0.0-14.0-0.0-0.4","5fbeef08fae48b16613fbe94","619531dcf66c91622fa1b861","619597cfdbf55536a91ea0f8","null","","null","","","","","main_T1_ITI","","","","",""
"","","","","","visual-search-circle","23","120821","0.0-14.0-0.0-1.4","5fbeef08fae48b16613fbe94","619531dcf66c91622fa1b861","619597cfdbf55536a91ea0f8","3695.2999999998137","","s","false","[[95,80],[28,426],[336,597],[594,357],[445,37]]","true","5","main_T2_Trial","d","img/Fire_Up_Target.gif","[""img/Fire_Down_Distractor.gif"",""img/Fire_Down_Distractor.gif"",""img/Fire_Down_Distractor.gif"",""img/Fire_Down_Distractor.gif"",""img/Fire_Down_Distractor.gif"",""img/Fire_Down_Distractor.gif"",""img/Fire_Down_Distractor.gif"",""img/Fire_Down_Distractor.gif"",""img/Fire_Down_Distractor.gif"",""img/Fire_Down_Distractor.gif"",""img/Fire_Down_Distractor.gif"",""img/Fire_Down_Distractor.gif""]","5","targetUp_distractorsDown"
"","","","","","html-keyboard-response","24","120823","0.0-14.0-0.0-0.5","5fbeef08fae48b16613fbe94","619531dcf66c91622fa1b861","619597cfdbf55536a91ea0f8","null","","null","","","","","main_T1_ITI","","","","",""
"","","","","","visual-search-circle","25","124327","0.0-14.0-0.0-1.5","5fbeef08fae48b16613fbe94","619531dcf66c91622fa1b861","619597cfdbf55536a91ea0f8","2499.399999999441","","d","false","[[182,23],[2,263],[119,539],[417,576],[597,336],[480,60]]","false","6","main_T2_Trial","s","img/Fire_Up_Target.gif","[""img/Fire_Down_Distractor.gif"",""img/Fire_Down_Distractor.gif"",""img/Fire_Down_Distractor.gif"",""img/Fire_Down_Distractor.gif"",""img/Fire_Down_Distractor.gif"",""img/Fire_Down_Distractor.gif"",""img/Fire_Down_Distractor.gif"",""img/Fire_Down_Distractor.gif"",""img/Fire_Down_Distractor.gif"",""img/Fire_Down_Distractor.gif"",""img/Fire_Down_Distractor.gif"",""img/Fire_Down_Distractor.gif""]","6","targetUp_distractorsDown"
"","","","","","html-keyboard-response","26","124328","0.0-14.0-0.0-0.6","5fbeef08fae48b16613fbe94","619531dcf66c91622fa1b861","619597cfdbf55536a91ea0f8","null","","null","","","","","main_T1_ITI","","","","",""
"","","","","","visual-search-circle","27","125769","0.0-14.0-0.0-1.6","5fbeef08fae48b16613fbe94","619531dcf66c91622fa1b861","619597cfdbf55536a91ea0f8","434.59999999962747","","s","false","[[554,458],[582,200],[398,16],[139,46],[1,267],[88,512],[334,598]]","true","7","main_T2_Trial","d","img/Fire_Up_Target.gif","[""img/Fire_Down_Distractor.gif"",""img/Fire_Down_Distractor.gif"",""img/Fire_Down_Distractor.gif"",""img/Fire_Down_Distractor.gif"",""img/Fire_Down_Distractor.gif"",""img/Fire_Down_Distractor.gif"",""img/Fire_Down_Distractor.gif"",""img/Fire_Down_Distractor.gif"",""img/Fire_Down_Distractor.gif"",""img/Fire_Down_Distractor.gif"",""img/Fire_Down_Distractor.gif"",""img/Fire_Down_Distractor.gif""]","7","targetUp_distractorsDown"
"","","","","","html-keyboard-response","28","125771","0.0-14.0-0.0-0.7","5fbeef08fae48b16613fbe94","619531dcf66c91622fa1b861","619597cfdbf55536a91ea0f8","null","","null","","","","","main_T1_ITI","","","","",""
"","","","","","visual-search-circle","29","127224","0.0-14.0-0.0-1.7","5fbeef08fae48b16613fbe94","619531dcf66c91622fa1b861","619597cfdbf55536a91ea0f8","438.09999999962747","","d","false","[[187,21],[0,320],[227,591],[554,458],[529,107]]","false","5","main_T2_Trial","s","img/Fire_Down_Target.gif","[""img/Fire_Up_Distractor.gif"",""img/Fire_Up_Distractor.gif"",""img/Fire_Up_Distractor.gif"",""img/Fire_Up_Distractor.gif"",""img/Fire_Up_Distractor.gif"",""img/Fire_Up_Distractor.gif"",""img/Fire_Up_Distractor.gif"",""img/Fire_Up_Distractor.gif"",""img/Fire_Up_Distractor.gif"",""img/Fire_Up_Distractor.gif"",""img/Fire_Up_Distractor.gif"",""img/Fire_Up_Distractor.gif""]","5","targetDown_distractorsUp"
"","","","","","html-keyboard-response","30","127228","0.0-14.0-0.0-0.8","5fbeef08fae48b16613fbe94","619531dcf66c91622fa1b861","619597cfdbf55536a91ea0f8","null","","null","","","","","main_T1_ITI","","","","",""
"","","","","","visual-search-circle","31","128778","0.0-14.0-0.0-1.8","5fbeef08fae48b16613fbe94","619531dcf66c91622fa1b861","619597cfdbf55536a91ea0f8","540.5999999996275","","s","false","[[66,111],[1,331],[111,533],[331,598],[533,488],[598,268],[488,66],[268,1]]","true","8","main_T2_Trial","d","img/Fire_Down_Target.gif","[""img/Fire_Up_Distractor.gif"",""img/Fire_Up_Distractor.gif"",""img/Fire_Up_Distractor.gif"",""img/Fire_Up_Distractor.gif"",""img/Fire_Up_Distractor.gif"",""img/Fire_Up_Distractor.gif"",""img/Fire_Up_Distractor.gif"",""img/Fire_Up_Distractor.gif"",""img/Fire_Up_Distractor.gif"",""img/Fire_Up_Distractor.gif"",""img/Fire_Up_Distractor.gif"",""img/Fire_Up_Distractor.gif""]","8","targetDown_distractorsUp"
"","","","","","html-keyboard-response","32","128781","0.0-14.0-0.0-0.9","5fbeef08fae48b16613fbe94","619531dcf66c91622fa1b861","619597cfdbf55536a91ea0f8","null","","null","","","","","main_T1_ITI","","","","",""
"","","","","","visual-search-circle","33","130292","0.0-14.0-0.0-1.9","5fbeef08fae48b16613fbe94","619531dcf66c91622fa1b861","619597cfdbf55536a91ea0f8","504","","d","false","[[569,168],[168,30],[30,431],[431,569]]","false","4","main_T2_Trial","s","img/Fire_Up_Target.gif","[""img/Fire_Down_Distractor.gif"",""img/Fire_Down_Distractor.gif"",""img/Fire_Down_Distractor.gif"",""img/Fire_Down_Distractor.gif"",""img/Fire_Down_Distractor.gif"",""img/Fire_Down_Distractor.gif"",""img/Fire_Down_Distractor.gif"",""img/Fire_Down_Distractor.gif"",""img/Fire_Down_Distractor.gif"",""img/Fire_Down_Distractor.gif"",""img/Fire_Down_Distractor.gif"",""img/Fire_Down_Distractor.gif""]","4","targetUp_distractorsDown"
"","","","","","html-keyboard-response","34","130295","0.0-14.0-0.0-0.10","5fbeef08fae48b16613fbe94","619531dcf66c91622fa1b861","619597cfdbf55536a91ea0f8","null","","null","","","","","main_T1_ITI","","","","",""
"","","","","","visual-search-circle","35","131840","0.0-14.0-0.0-1.10","5fbeef08fae48b16613fbe94","619531dcf66c91622fa1b861","619597cfdbf55536a91ea0f8","534.4000000003725","","s","true","[[42,454],[260,597],[507,516],[598,272],[464,49],[206,14],[18,195]]","false","7","main_T2_Trial","s","img/Fire_Up_Target.gif","[""img/Fire_Down_Distractor.gif"",""img/Fire_Down_Distractor.gif"",""img/Fire_Down_Distractor.gif"",""img/Fire_Down_Distractor.gif"",""img/Fire_Down_Distractor.gif"",""img/Fire_Down_Distractor.gif"",""img/Fire_Down_Distractor.gif"",""img/Fire_Down_Distractor.gif"",""img/Fire_Down_Distractor.gif"",""img/Fire_Down_Distractor.gif"",""img/Fire_Down_Distractor.gif"",""img/Fire_Down_Distractor.gif""]","7","targetUp_distractorsDown"
"","","","","","html-keyboard-response","36","131841","0.0-14.0-0.0-0.11","5fbeef08fae48b16613fbe94","619531dcf66c91622fa1b861","619597cfdbf55536a91ea0f8","null","","null","","","","","main_T1_ITI","","","","",""
"","","","","","visual-search-circle","37","133338","0.0-14.0-0.0-1.11","5fbeef08fae48b16613fbe94","619531dcf66c91622fa1b861","619597cfdbf55536a91ea0f8","482.6000000005588","","d","false","[[42,145],[18,404],[206,585],[464,550],[598,327],[507,83],[260,2]]","false","7","main_T2_Trial","s","img/Fire_Down_Target.gif","[""img/Fire_Up_Distractor.gif"",""img/Fire_Up_Distractor.gif"",""img/Fire_Up_Distractor.gif"",""img/Fire_Up_Distractor.gif"",""img/Fire_Up_Distractor.gif"",""img/Fire_Up_Distractor.gif"",""img/Fire_Up_Distractor.gif"",""img/Fire_Up_Distractor.gif"",""img/Fire_Up_Distractor.gif"",""img/Fire_Up_Distractor.gif"",""img/Fire_Up_Distractor.gif"",""img/Fire_Up_Distractor.gif""]","7","targetDown_distractorsUp"
"","","","","","html-keyboard-response","38","133341","0.0-14.0-0.0-0.12","5fbeef08fae48b16613fbe94","619531dcf66c91622fa1b861","619597cfdbf55536a91ea0f8","null","","null","","","","","main_T1_ITI","","","","",""
"","","","","","visual-search-circle","39","134929","0.0-14.0-0.0-1.12","5fbeef08fae48b16613fbe94","619531dcf66c91622fa1b861","619597cfdbf55536a91ea0f8","579.5999999996275","","s","false","[[574,422],[500,77],[150,40],[6,362],[268,598]]","true","5","main_T2_Trial","d","img/Fire_Down_Target.gif","[""img/Fire_Up_Distractor.gif"",""img/Fire_Up_Distractor.gif"",""img/Fire_Up_Distractor.gif"",""img/Fire_Up_Distractor.gif"",""img/Fire_Up_Distractor.gif"",""img/Fire_Up_Distractor.gif"",""img/Fire_Up_Distractor.gif"",""img/Fire_Up_Distractor.gif"",""img/Fire_Up_Distractor.gif"",""img/Fire_Up_Distractor.gif"",""img/Fire_Up_Distractor.gif"",""img/Fire_Up_Distractor.gif""]","5","targetDown_distractorsUp"
"","","","","","html-keyboard-response","40","134931","0.0-14.0-0.0-0.13","5fbeef08fae48b16613fbe94","619531dcf66c91622fa1b861","619597cfdbf55536a91ea0f8","null","","null","","","","","main_T1_ITI","","","","",""
"","","","","","visual-search-circle","41","136364","0.0-14.0-0.0-1.13","5fbeef08fae48b16613fbe94","619531dcf66c91622fa1b861","619597cfdbf55536a91ea0f8","426.70000000018626","","d","false","[[585,392],[392,14],[14,207],[207,585]]","false","4","main_T2_Trial","s","img/Fire_Up_Target.gif","[""img/Fire_Down_Distractor.gif"",""img/Fire_Down_Distractor.gif"",""img/Fire_Down_Distractor.gif"",""img/Fire_Down_Distractor.gif"",""img/Fire_Down_Distractor.gif"",""img/Fire_Down_Distractor.gif"",""img/Fire_Down_Distractor.gif"",""img/Fire_Down_Distractor.gif"",""img/Fire_Down_Distractor.gif"",""img/Fire_Down_Distractor.gif"",""img/Fire_Down_Distractor.gif"",""img/Fire_Down_Distractor.gif""]","4","targetUp_distractorsDown"
"","","","","","html-keyboard-response","42","136367","0.0-14.0-0.0-0.14","5fbeef08fae48b16613fbe94","619531dcf66c91622fa1b861","619597cfdbf55536a91ea0f8","null","","null","","","","","main_T1_ITI","","","","",""
"","","","","","visual-search-circle","43","138080","0.0-14.0-0.0-1.14","5fbeef08fae48b16613fbe94","619531dcf66c91622fa1b861","619597cfdbf55536a91ea0f8","708.7000000001863","","s","false","[[18,402],[310,599],[588,382],[467,51],[115,63]]","true","5","main_T2_Trial","d","img/Fire_Up_Target.gif","[""img/Fire_Down_Distractor.gif"",""img/Fire_Down_Distractor.gif"",""img/Fire_Down_Distractor.gif"",""img/Fire_Down_Distractor.gif"",""img/Fire_Down_Distractor.gif"",""img/Fire_Down_Distractor.gif"",""img/Fire_Down_Distractor.gif"",""img/Fire_Down_Distractor.gif"",""img/Fire_Down_Distractor.gif"",""img/Fire_Down_Distractor.gif"",""img/Fire_Down_Distractor.gif"",""img/Fire_Down_Distractor.gif""]","5","targetUp_distractorsDown"
"","","","","","html-keyboard-response","44","138082","0.0-14.0-0.0-0.15","5fbeef08fae48b16613fbe94","619531dcf66c91622fa1b861","619597cfdbf55536a91ea0f8","null","","null","","","","","main_T1_ITI","","","","",""
"","","","","","visual-search-circle","45","139536","0.0-14.0-0.0-1.15","5fbeef08fae48b16613fbe94","619531dcf66c91622fa1b861","619597cfdbf55536a91ea0f8","445.70000000018626","","d","true","[[107,529],[326,598],[529,492],[598,273],[492,70],[273,1],[70,107],[1,326]]","true","8","main_T2_Trial","d","img/Fire_Up_Target.gif","[""img/Fire_Down_Distractor.gif"",""img/Fire_Down_Distractor.gif"",""img/Fire_Down_Distractor.gif"",""img/Fire_Down_Distractor.gif"",""img/Fire_Down_Distractor.gif"",""img/Fire_Down_Distractor.gif"",""img/Fire_Down_Distractor.gif"",""img/Fire_Down_Distractor.gif"",""img/Fire_Down_Distractor.gif"",""img/Fire_Down_Distractor.gif"",""img/Fire_Down_Distractor.gif"",""img/Fire_Down_Distractor.gif""]","8","targetUp_distractorsDown"
"","","","","","html-keyboard-response","46","139538","0.0-14.0-0.0-0.16","5fbeef08fae48b16613fbe94","619531dcf66c91622fa1b861","619597cfdbf55536a91ea0f8","null","","null","","","","","main_T1_ITI","","","","",""
"","","","","","visual-search-circle","47","141108","0.0-14.0-0.0-1.16","5fbeef08fae48b16613fbe94","619531dcf66c91622fa1b861","619597cfdbf55536a91ea0f8","552.2999999998137","","s","false","[[136,551],[394,584],[581,403],[556,144],[338,2],[91,84],[1,329]]","true","7","main_T2_Trial","d","img/Fire_Down_Target.gif","[""img/Fire_Up_Distractor.gif"",""img/Fire_Up_Distractor.gif"",""img/Fire_Up_Distractor.gif"",""img/Fire_Up_Distractor.gif"",""img/Fire_Up_Distractor.gif"",""img/Fire_Up_Distractor.gif"",""img/Fire_Up_Distractor.gif"",""img/Fire_Up_Distractor.gif"",""img/Fire_Up_Distractor.gif"",""img/Fire_Up_Distractor.gif"",""img/Fire_Up_Distractor.gif"",""img/Fire_Up_Distractor.gif""]","7","targetDown_distractorsUp"
"","","","","","html-keyboard-response","48","141111","0.0-14.0-0.0-0.17","5fbeef08fae48b16613fbe94","619531dcf66c91622fa1b861","619597cfdbf55536a91ea0f8","null","","null","","","","","main_T1_ITI","","","","",""
"","","","","","visual-search-circle","49","142568","0.0-14.0-0.0-1.17","5fbeef08fae48b16613fbe94","619531dcf66c91622fa1b861","619597cfdbf55536a91ea0f8","445.20000000018626","","d","true","[[362,6],[109,68],[0,304],[116,537],[371,591],[572,426],[568,165]]","true","7","main_T2_Trial","d","img/Fire_Up_Target.gif","[""img/Fire_Down_Distractor.gif"",""img/Fire_Down_Distractor.gif"",""img/Fire_Down_Distractor.gif"",""img/Fire_Down_Distractor.gif"",""img/Fire_Down_Distractor.gif"",""img/Fire_Down_Distractor.gif"",""img/Fire_Down_Distractor.gif"",""img/Fire_Down_Distractor.gif"",""img/Fire_Down_Distractor.gif"",""img/Fire_Down_Distractor.gif"",""img/Fire_Down_Distractor.gif"",""img/Fire_Down_Distractor.gif""]","7","targetUp_distractorsDown"
"","","","","","html-keyboard-response","50","142570","0.0-14.0-0.0-0.18","5fbeef08fae48b16613fbe94","619531dcf66c91622fa1b861","619597cfdbf55536a91ea0f8","null","","null","","","","","main_T1_ITI","","","","",""
"","","","","","visual-search-circle","51","144130","0.0-14.0-0.0-1.18","5fbeef08fae48b16613fbe94","619531dcf66c91622fa1b861","619597cfdbf55536a91ea0f8","557.5999999996275","","s","true","[[597,341],[431,30],[84,91],[35,440],[352,595]]","false","5","main_T2_Trial","s","img/Fire_Up_Target.gif","[""img/Fire_Down_Distractor.gif"",""img/Fire_Down_Distractor.gif"",""img/Fire_Down_Distractor.gif"",""img/Fire_Down_Distractor.gif"",""img/Fire_Down_Distractor.gif"",""img/Fire_Down_Distractor.gif"",""img/Fire_Down_Distractor.gif"",""img/Fire_Down_Distractor.gif"",""img/Fire_Down_Distractor.gif"",""img/Fire_Down_Distractor.gif"",""img/Fire_Down_Distractor.gif"",""img/Fire_Down_Distractor.gif""]","5","targetUp_distractorsDown"
"","","","","","html-keyboard-response","52","150564","0.0-14.0-0.0-0.19","5fbeef08fae48b16613fbe94","619531dcf66c91622fa1b861","619597cfdbf55536a91ea0f8","6433.9000000003725","Wow! You've completed 20 out of 160 trials! </p> <p>  </p><p> Take a quick break, then press any key when you're ready to continue."," ","","","","","main_T1_ITI","","","","",""
"","","","","","visual-search-circle","53","160064","0.0-14.0-0.0-1.19","5fbeef08fae48b16613fbe94","619531dcf66c91622fa1b861","619597cfdbf55536a91ea0f8","8490.5","","s","false","[[14,392],[237,593],[522,500],[585,207],[362,6],[77,99]]","true","6","main_T2_Trial","d","img/Fire_Up_Target.gif","[""img/Fire_Down_Distractor.gif"",""img/Fire_Down_Distractor.gif"",""img/Fire_Down_Distractor.gif"",""img/Fire_Down_Distractor.gif"",""img/Fire_Down_Distractor.gif"",""img/Fire_Down_Distractor.gif"",""img/Fire_Down_Distractor.gif"",""img/Fire_Down_Distractor.gif"",""img/Fire_Down_Distractor.gif"",""img/Fire_Down_Distractor.gif"",""img/Fire_Down_Distractor.gif"",""img/Fire_Down_Distractor.gif""]","6","targetUp_distractorsDown"
"","","","","","html-keyboard-response","54","160066","0.0-14.0-0.0-0.20","5fbeef08fae48b16613fbe94","619531dcf66c91622fa1b861","619597cfdbf55536a91ea0f8","null","","null","","","","","main_T1_ITI","","","","",""
"","","","","","visual-search-circle","55","163063","0.0-14.0-0.0-1.20","5fbeef08fae48b16613fbe94","619531dcf66c91622fa1b861","619597cfdbf55536a91ea0f8","1994.2000000001863","","s","false","[[476,57],[57,123],[123,542],[542,476]]","true","4","main_T2_Trial","d","img/Fire_Up_Target.gif","[""img/Fire_Down_Distractor.gif"",""img/Fire_Down_Distractor.gif"",""img/Fire_Down_Distractor.gif"",""img/Fire_Down_Distractor.gif"",""img/Fire_Down_Distractor.gif"",""img/Fire_Down_Distractor.gif"",""img/Fire_Down_Distractor.gif"",""img/Fire_Down_Distractor.gif"",""img/Fire_Down_Distractor.gif"",""img/Fire_Down_Distractor.gif"",""img/Fire_Down_Distractor.gif"",""img/Fire_Down_Distractor.gif""]","4","targetUp_distractorsDown"
"","","","","","html-keyboard-response","56","163066","0.0-14.0-0.0-0.21","5fbeef08fae48b16613fbe94","619531dcf66c91622fa1b861","619597cfdbf55536a91ea0f8","null","","null","","","","","main_T1_ITI","","","","",""
"","","","","","visual-search-circle","57","170459","0.0-14.0-0.0-1.21","5fbeef08fae48b16613fbe94","619531dcf66c91622fa1b861","619597cfdbf55536a91ea0f8","6390.5","","s","false","[[25,177],[177,574],[574,422],[422,25]]","true","4","main_T2_Trial","d","img/Fire_Up_Target.gif","[""img/Fire_Down_Distractor.gif"",""img/Fire_Down_Distractor.gif"",""img/Fire_Down_Distractor.gif"",""img/Fire_Down_Distractor.gif"",""img/Fire_Down_Distractor.gif"",""img/Fire_Down_Distractor.gif"",""img/Fire_Down_Distractor.gif"",""img/Fire_Down_Distractor.gif"",""img/Fire_Down_Distractor.gif"",""img/Fire_Down_Distractor.gif"",""img/Fire_Down_Distractor.gif"",""img/Fire_Down_Distractor.gif""]","4","targetUp_distractorsDown"
"","","","","","html-keyboard-response","58","170462","0.0-14.0-0.0-0.22","5fbeef08fae48b16613fbe94","619531dcf66c91622fa1b861","619597cfdbf55536a91ea0f8","null","","null","","","","","main_T1_ITI","","","","",""
"","","","","","visual-search-circle","59","173227","0.0-14.0-0.0-1.22","5fbeef08fae48b16613fbe94","619531dcf66c91622fa1b861","619597cfdbf55536a91ea0f8","1760.2000000001863","","d","false","[[111,533],[331,598],[533,488],[598,268],[488,66],[268,1],[66,111],[1,331]]","false","8","main_T2_Trial","s","img/Fire_Up_Target.gif","[""img/Fire_Down_Distractor.gif"",""img/Fire_Down_Distractor.gif"",""img/Fire_Down_Distractor.gif"",""img/Fire_Down_Distractor.gif"",""img/Fire_Down_Distractor.gif"",""img/Fire_Down_Distractor.gif"",""img/Fire_Down_Distractor.gif"",""img/Fire_Down_Distractor.gif"",""img/Fire_Down_Distractor.gif"",""img/Fire_Down_Distractor.gif"",""img/Fire_Down_Distractor.gif"",""img/Fire_Down_Distractor.gif""]","8","targetUp_distractorsDown"
"","","","","","html-keyboard-response","60","173230","0.0-14.0-0.0-0.23","5fbeef08fae48b16613fbe94","619531dcf66c91622fa1b861","619597cfdbf55536a91ea0f8","null","","null","","","","","main_T1_ITI","","","","",""
"","","","","","visual-search-circle","61","178045","0.0-14.0-0.0-1.23","5fbeef08fae48b16613fbe94","619531dcf66c91622fa1b861","619597cfdbf55536a91ea0f8","3804.100000000559","","d","false","[[168,569],[428,570],[592,368],[535,114],[301,0],[66,111],[7,365]]","false","7","main_T2_Trial","s","img/Fire_Down_Target.gif","[""img/Fire_Up_Distractor.gif"",""img/Fire_Up_Distractor.gif"",""img/Fire_Up_Distractor.gif"",""img/Fire_Up_Distractor.gif"",""img/Fire_Up_Distractor.gif"",""img/Fire_Up_Distractor.gif"",""img/Fire_Up_Distractor.gif"",""img/Fire_Up_Distractor.gif"",""img/Fire_Up_Distractor.gif"",""img/Fire_Up_Distractor.gif"",""img/Fire_Up_Distractor.gif"",""img/Fire_Up_Distractor.gif""]","7","targetDown_distractorsUp"
"","","","","","html-keyboard-response","62","178047","0.0-14.0-0.0-0.24","5fbeef08fae48b16613fbe94","619531dcf66c91622fa1b861","619597cfdbf55536a91ea0f8","null","","null","","","","","main_T1_ITI","","","","",""
"","","","","","visual-search-circle","63","183627","0.0-14.0-0.0-1.24","5fbeef08fae48b16613fbe94","619531dcf66c91622fa1b861","619597cfdbf55536a91ea0f8","4573.799999999814","","s","false","[[150,40],[10,222],[40,450],[222,589],[450,559],[589,377],[559,150],[377,10]]","true","8","main_T2_Trial","d","img/Fire_Up_Target.gif","[""img/Fire_Down_Distractor.gif"",""img/Fire_Down_Distractor.gif"",""img/Fire_Down_Distractor.gif"",""img/Fire_Down_Distractor.gif"",""img/Fire_Down_Distractor.gif"",""img/Fire_Down_Distractor.gif"",""img/Fire_Down_Distractor.gif"",""img/Fire_Down_Distractor.gif"",""img/Fire_Down_Distractor.gif"",""img/Fire_Down_Distractor.gif"",""img/Fire_Down_Distractor.gif"",""img/Fire_Down_Distractor.gif""]","8","targetUp_distractorsDown"
"","","","","","html-keyboard-response","64","183628","0.0-14.0-0.0-0.25","5fbeef08fae48b16613fbe94","619531dcf66c91622fa1b861","619597cfdbf55536a91ea0f8","null","","null","","","","","main_T1_ITI","","","","",""
"","","","","","visual-search-circle","65","190162","0.0-14.0-0.0-1.25","5fbeef08fae48b16613fbe94","619531dcf66c91622fa1b861","619597cfdbf55536a91ea0f8","5521.299999999814","","d","true","[[289,599],[527,495],[594,243],[439,34],[179,25],[10,223],[59,478]]","true","7","main_T2_Trial","d","img/Fire_Up_Target.gif","[""img/Fire_Down_Distractor.gif"",""img/Fire_Down_Distractor.gif"",""img/Fire_Down_Distractor.gif"",""img/Fire_Down_Distractor.gif"",""img/Fire_Down_Distractor.gif"",""img/Fire_Down_Distractor.gif"",""img/Fire_Down_Distractor.gif"",""img/Fire_Down_Distractor.gif"",""img/Fire_Down_Distractor.gif"",""img/Fire_Down_Distractor.gif"",""img/Fire_Down_Distractor.gif"",""img/Fire_Down_Distractor.gif""]","7","targetUp_distractorsDown"
"","","","","","html-keyboard-response","66","190165","0.0-14.0-0.0-0.26","5fbeef08fae48b16613fbe94","619531dcf66c91622fa1b861","619597cfdbf55536a91ea0f8","null","","null","","","","","main_T1_ITI","","","","",""
"","","","","","visual-search-circle","67","192056","0.0-14.0-0.0-1.26","5fbeef08fae48b16613fbe94","619531dcf66c91622fa1b861","619597cfdbf55536a91ea0f8","883.0999999996275","","s","false","[[539,119],[202,16],[0,305],[212,586],[545,472]]","true","5","main_T2_Trial","d","img/Fire_Down_Target.gif","[""img/Fire_Up_Distractor.gif"",""img/Fire_Up_Distractor.gif"",""img/Fire_Up_Distractor.gif"",""img/Fire_Up_Distractor.gif"",""img/Fire_Up_Distractor.gif"",""img/Fire_Up_Distractor.gif"",""img/Fire_Up_Distractor.gif"",""img/Fire_Up_Distractor.gif"",""img/Fire_Up_Distractor.gif"",""img/Fire_Up_Distractor.gif"",""img/Fire_Up_Distractor.gif"",""img/Fire_Up_Distractor.gif""]","5","targetDown_distractorsUp"
"","","","","","html-keyboard-response","68","192058","0.0-14.0-0.0-0.27","5fbeef08fae48b16613fbe94","619531dcf66c91622fa1b861","619597cfdbf55536a91ea0f8","null","","null","","","","","main_T1_ITI","","","","",""
"","","","","","visual-search-circle","69","193706","0.0-14.0-0.0-1.27","5fbeef08fae48b16613fbe94","619531dcf66c91622fa1b861","619597cfdbf55536a91ea0f8","632.8000000007451","","d","true","[[504,80],[289,0],[80,95],[0,310],[95,519],[310,599],[519,504],[599,289]]","true","8","main_T2_Trial","d","img/Fire_Down_Target.gif","[""img/Fire_Up_Distractor.gif"",""img/Fire_Up_Distractor.gif"",""img/Fire_Up_Distractor.gif"",""img/Fire_Up_Distractor.gif"",""img/Fire_Up_Distractor.gif"",""img/Fire_Up_Distractor.gif"",""img/Fire_Up_Distractor.gif"",""img/Fire_Up_Distractor.gif"",""img/Fire_Up_Distractor.gif"",""img/Fire_Up_Distractor.gif"",""img/Fire_Up_Distractor.gif"",""img/Fire_Up_Distractor.gif""]","8","targetDown_distractorsUp"
"","","","","","html-keyboard-response","70","193708","0.0-14.0-0.0-0.28","5fbeef08fae48b16613fbe94","619531dcf66c91622fa1b861","619597cfdbf55536a91ea0f8","null","","null","","","","","main_T1_ITI","","","","",""
"","","","","","visual-search-circle","71","196553","0.0-14.0-0.0-1.28","5fbeef08fae48b16613fbe94","619531dcf66c91622fa1b861","619597cfdbf55536a91ea0f8","1828.9000000003725","","s","false","[[569,431],[548,132],[279,0],[30,168],[51,467],[320,599]]","true","6","main_T2_Trial","d","img/Fire_Up_Target.gif","[""img/Fire_Down_Distractor.gif"",""img/Fire_Down_Distractor.gif"",""img/Fire_Down_Distractor.gif"",""img/Fire_Down_Distractor.gif"",""img/Fire_Down_Distractor.gif"",""img/Fire_Down_Distractor.gif"",""img/Fire_Down_Distractor.gif"",""img/Fire_Down_Distractor.gif"",""img/Fire_Down_Distractor.gif"",""img/Fire_Down_Distractor.gif"",""img/Fire_Down_Distractor.gif"",""img/Fire_Down_Distractor.gif""]","6","targetUp_distractorsDown"
"","","","","","html-keyboard-response","72","196555","0.0-14.0-0.0-0.29","5fbeef08fae48b16613fbe94","619531dcf66c91622fa1b861","619597cfdbf55536a91ea0f8","null","","null","","","","","main_T1_ITI","","","","",""
"","","","","","visual-search-circle","73","200209","0.0-14.0-0.0-1.29","5fbeef08fae48b16613fbe94","619531dcf66c91622fa1b861","619597cfdbf55536a91ea0f8","2649.7000000001863","","d","false","[[289,599],[527,495],[594,243],[439,34],[179,25],[10,223],[59,478]]","false","7","main_T2_Trial","s","img/Fire_Down_Target.gif","[""img/Fire_Up_Distractor.gif"",""img/Fire_Up_Distractor.gif"",""img/Fire_Up_Distractor.gif"",""img/Fire_Up_Distractor.gif"",""img/Fire_Up_Distractor.gif"",""img/Fire_Up_Distractor.gif"",""img/Fire_Up_Distractor.gif"",""img/Fire_Up_Distractor.gif"",""img/Fire_Up_Distractor.gif"",""img/Fire_Up_Distractor.gif"",""img/Fire_Up_Distractor.gif"",""img/Fire_Up_Distractor.gif""]","7","targetDown_distractorsUp"
"","","","","","html-keyboard-response","74","200212","0.0-14.0-0.0-0.30","5fbeef08fae48b16613fbe94","619531dcf66c91622fa1b861","619597cfdbf55536a91ea0f8","null","","null","","","","","main_T1_ITI","","","","",""
"","","","","","visual-search-circle","75","202580","0.0-14.0-0.0-1.30","5fbeef08fae48b16613fbe94","619531dcf66c91622fa1b861","619597cfdbf55536a91ea0f8","1353.7999999998137","","s","true","[[111,533],[407,580],[596,346],[488,66],[192,19],[3,253]]","false","6","main_T2_Trial","s","img/Fire_Down_Target.gif","[""img/Fire_Up_Distractor.gif"",""img/Fire_Up_Distractor.gif"",""img/Fire_Up_Distractor.gif"",""img/Fire_Up_Distractor.gif"",""img/Fire_Up_Distractor.gif"",""img/Fire_Up_Distractor.gif"",""img/Fire_Up_Distractor.gif"",""img/Fire_Up_Distractor.gif"",""img/Fire_Up_Distractor.gif"",""img/Fire_Up_Distractor.gif"",""img/Fire_Up_Distractor.gif"",""img/Fire_Up_Distractor.gif""]","6","targetDown_distractorsUp"
"","","","","","html-keyboard-response","76","202582","0.0-14.0-0.0-0.31","5fbeef08fae48b16613fbe94","619531dcf66c91622fa1b861","619597cfdbf55536a91ea0f8","null","","null","","","","","main_T1_ITI","","","","",""
"","","","","","visual-search-circle","77","206029","0.0-14.0-0.0-1.31","5fbeef08fae48b16613fbe94","619531dcf66c91622fa1b861","619597cfdbf55536a91ea0f8","2441.100000000559","","d","false","[[145,557],[496,526],[576,182],[273,1],[7,232]]","false","5","main_T2_Trial","s","img/Fire_Down_Target.gif","[""img/Fire_Up_Distractor.gif"",""img/Fire_Up_Distractor.gif"",""img/Fire_Up_Distractor.gif"",""img/Fire_Up_Distractor.gif"",""img/Fire_Up_Distractor.gif"",""img/Fire_Up_Distractor.gif"",""img/Fire_Up_Distractor.gif"",""img/Fire_Up_Distractor.gif"",""img/Fire_Up_Distractor.gif"",""img/Fire_Up_Distractor.gif"",""img/Fire_Up_Distractor.gif"",""img/Fire_Up_Distractor.gif""]","5","targetDown_distractorsUp"
"","","","","","html-keyboard-response","78","206031","0.0-14.0-0.0-0.32","5fbeef08fae48b16613fbe94","619531dcf66c91622fa1b861","619597cfdbf55536a91ea0f8","null","","null","","","","","main_T1_ITI","","","","",""
"","","","","","visual-search-circle","79","208696","0.0-14.0-0.0-1.32","5fbeef08fae48b16613fbe94","619531dcf66c91622fa1b861","619597cfdbf55536a91ea0f8","1653","","d","true","[[63,484],[341,597],[578,412],[536,115],[258,2],[21,187]]","true","6","main_T2_Trial","d","img/Fire_Up_Target.gif","[""img/Fire_Down_Distractor.gif"",""img/Fire_Down_Distractor.gif"",""img/Fire_Down_Distractor.gif"",""img/Fire_Down_Distractor.gif"",""img/Fire_Down_Distractor.gif"",""img/Fire_Down_Distractor.gif"",""img/Fire_Down_Distractor.gif"",""img/Fire_Down_Distractor.gif"",""img/Fire_Down_Distractor.gif"",""img/Fire_Down_Distractor.gif"",""img/Fire_Down_Distractor.gif"",""img/Fire_Down_Distractor.gif""]","6","targetUp_distractorsDown"
"","","","","","html-keyboard-response","80","208698","0.0-14.0-0.0-0.33","5fbeef08fae48b16613fbe94","619531dcf66c91622fa1b861","619597cfdbf55536a91ea0f8","null","","null","","","","","main_T1_ITI","","","","",""
"","","","","","visual-search-circle","81","210161","0.0-14.0-0.0-1.33","5fbeef08fae48b16613fbe94","619531dcf66c91622fa1b861","619597cfdbf55536a91ea0f8","456.90000000037253","","s","true","[[422,574],[598,268],[362,6],[40,150],[77,500]]","false","5","main_T2_Trial","s","img/Fire_Up_Target.gif","[""img/Fire_Down_Distractor.gif"",""img/Fire_Down_Distractor.gif"",""img/Fire_Down_Distractor.gif"",""img/Fire_Down_Distractor.gif"",""img/Fire_Down_Distractor.gif"",""img/Fire_Down_Distractor.gif"",""img/Fire_Down_Distractor.gif"",""img/Fire_Down_Distractor.gif"",""img/Fire_Down_Distractor.gif"",""img/Fire_Down_Distractor.gif"",""img/Fire_Down_Distractor.gif"",""img/Fire_Down_Distractor.gif""]","5","targetUp_distractorsDown"
"","","","","","html-keyboard-response","82","210164","0.0-14.0-0.0-0.34","5fbeef08fae48b16613fbe94","619531dcf66c91622fa1b861","619597cfdbf55536a91ea0f8","null","","null","","","","","main_T1_ITI","","","","",""
"","","","","","visual-search-circle","83","211737","0.0-14.0-0.0-1.34","5fbeef08fae48b16613fbe94","619531dcf66c91622fa1b861","619597cfdbf55536a91ea0f8","559","","s","true","[[222,589],[450,559],[589,377],[559,150],[377,10],[150,40],[10,222],[40,449]]","false","8","main_T2_Trial","s","img/Fire_Up_Target.gif","[""img/Fire_Down_Distractor.gif"",""img/Fire_Down_Distractor.gif"",""img/Fire_Down_Distractor.gif"",""img/Fire_Down_Distractor.gif"",""img/Fire_Down_Distractor.gif"",""img/Fire_Down_Distractor.gif"",""img/Fire_Down_Distractor.gif"",""img/Fire_Down_Distractor.gif"",""img/Fire_Down_Distractor.gif"",""img/Fire_Down_Distractor.gif"",""img/Fire_Down_Distractor.gif"",""img/Fire_Down_Distractor.gif""]","8","targetUp_distractorsDown"
"","","","","","html-keyboard-response","84","211739","0.0-14.0-0.0-0.35","5fbeef08fae48b16613fbe94","619531dcf66c91622fa1b861","619597cfdbf55536a91ea0f8","null","","null","","","","","main_T1_ITI","","","","",""
"","","","","","visual-search-circle","85","213174","0.0-14.0-0.0-1.35","5fbeef08fae48b16613fbe94","619531dcf66c91622fa1b861","619597cfdbf55536a91ea0f8","430.3999999994412","","d","true","[[51,467],[382,588],[599,310],[402,18],[63,115]]","true","5","main_T2_Trial","d","img/Fire_Up_Target.gif","[""img/Fire_Down_Distractor.gif"",""img/Fire_Down_Distractor.gif"",""img/Fire_Down_Distractor.gif"",""img/Fire_Down_Distractor.gif"",""img/Fire_Down_Distractor.gif"",""img/Fire_Down_Distractor.gif"",""img/Fire_Down_Distractor.gif"",""img/Fire_Down_Distractor.gif"",""img/Fire_Down_Distractor.gif"",""img/Fire_Down_Distractor.gif"",""img/Fire_Down_Distractor.gif"",""img/Fire_Down_Distractor.gif""]","5","targetUp_distractorsDown"
"","","","","","html-keyboard-response","86","213176","0.0-14.0-0.0-0.36","5fbeef08fae48b16613fbe94","619531dcf66c91622fa1b861","619597cfdbf55536a91ea0f8","null","","null","","","","","main_T1_ITI","","","","",""
"","","","","","visual-search-circle","87","214650","0.0-14.0-0.0-1.36","5fbeef08fae48b16613fbe94","619531dcf66c91622fa1b861","619597cfdbf55536a91ea0f8","463","","d","true","[[123,542],[542,476],[476,57],[57,123]]","true","4","main_T2_Trial","d","img/Fire_Down_Target.gif","[""img/Fire_Up_Distractor.gif"",""img/Fire_Up_Distractor.gif"",""img/Fire_Up_Distractor.gif"",""img/Fire_Up_Distractor.gif"",""img/Fire_Up_Distractor.gif"",""img/Fire_Up_Distractor.gif"",""img/Fire_Up_Distractor.gif"",""img/Fire_Up_Distractor.gif"",""img/Fire_Up_Distractor.gif"",""img/Fire_Up_Distractor.gif"",""img/Fire_Up_Distractor.gif"",""img/Fire_Up_Distractor.gif""]","4","targetDown_distractorsUp"
"","","","","","html-keyboard-response","88","214652","0.0-14.0-0.0-0.37","5fbeef08fae48b16613fbe94","619531dcf66c91622fa1b861","619597cfdbf55536a91ea0f8","null","","null","","","","","main_T1_ITI","","","","",""
"","","","","","visual-search-circle","89","216325","0.0-14.0-0.0-1.37","5fbeef08fae48b16613fbe94","619531dcf66c91622fa1b861","619597cfdbf55536a91ea0f8","663.7000000001863","","s","false","[[63,484],[297,599],[532,489],[593,236],[432,31],[172,28],[8,230]]","true","7","main_T2_Trial","d","img/Fire_Down_Target.gif","[""img/Fire_Up_Distractor.gif"",""img/Fire_Up_Distractor.gif"",""img/Fire_Up_Distractor.gif"",""img/Fire_Up_Distractor.gif"",""img/Fire_Up_Distractor.gif"",""img/Fire_Up_Distractor.gif"",""img/Fire_Up_Distractor.gif"",""img/Fire_Up_Distractor.gif"",""img/Fire_Up_Distractor.gif"",""img/Fire_Up_Distractor.gif"",""img/Fire_Up_Distractor.gif"",""img/Fire_Up_Distractor.gif""]","7","targetDown_distractorsUp"
"","","","","","html-keyboard-response","90","216328","0.0-14.0-0.0-0.38","5fbeef08fae48b16613fbe94","619531dcf66c91622fa1b861","619597cfdbf55536a91ea0f8","null","","null","","","","","main_T1_ITI","","","","",""
"","","","","","visual-search-circle","91","218180","0.0-14.0-0.0-1.38","5fbeef08fae48b16613fbe94","619531dcf66c91622fa1b861","619597cfdbf55536a91ea0f8","839.0999999996275","","d","false","[[463,551],[551,136],[136,48],[48,463]]","false","4","main_T2_Trial","s","img/Fire_Up_Target.gif","[""img/Fire_Down_Distractor.gif"",""img/Fire_Down_Distractor.gif"",""img/Fire_Down_Distractor.gif"",""img/Fire_Down_Distractor.gif"",""img/Fire_Down_Distractor.gif"",""img/Fire_Down_Distractor.gif"",""img/Fire_Down_Distractor.gif"",""img/Fire_Down_Distractor.gif"",""img/Fire_Down_Distractor.gif"",""img/Fire_Down_Distractor.gif"",""img/Fire_Down_Distractor.gif"",""img/Fire_Down_Distractor.gif""]","4","targetUp_distractorsDown"
"","","","","","html-keyboard-response","92","224207","0.0-14.0-0.0-0.39","5fbeef08fae48b16613fbe94","619531dcf66c91622fa1b861","619597cfdbf55536a91ea0f8","6026.5","Wow! You've completed 40 out of 160 trials! </p> <p>  </p><p> Take a quick break, then press any key when you're ready to continue."," ","","","","","main_T1_ITI","","","","",""
"","","","","","visual-search-circle","93","227196","0.0-14.0-0.0-1.39","5fbeef08fae48b16613fbe94","619531dcf66c91622fa1b861","619597cfdbf55536a91ea0f8","1985.9000000003725","","s","true","[[387,13],[13,212],[212,586],[586,387]]","false","4","main_T2_Trial","s","img/Fire_Up_Target.gif","[""img/Fire_Down_Distractor.gif"",""img/Fire_Down_Distractor.gif"",""img/Fire_Down_Distractor.gif"",""img/Fire_Down_Distractor.gif"",""img/Fire_Down_Distractor.gif"",""img/Fire_Down_Distractor.gif"",""img/Fire_Down_Distractor.gif"",""img/Fire_Down_Distractor.gif"",""img/Fire_Down_Distractor.gif"",""img/Fire_Down_Distractor.gif"",""img/Fire_Down_Distractor.gif"",""img/Fire_Down_Distractor.gif""]","4","targetUp_distractorsDown"
"","","","","","html-keyboard-response","94","227198","0.0-14.0-0.0-0.40","5fbeef08fae48b16613fbe94","619531dcf66c91622fa1b861","619597cfdbf55536a91ea0f8","null","","null","","","","","main_T1_ITI","","","","",""
"","","","","","visual-search-circle","95","228539","0.0-14.0-0.0-1.40","5fbeef08fae48b16613fbe94","619531dcf66c91622fa1b861","619597cfdbf55536a91ea0f8","325.59999999962747","","d","false","[[103,73],[0,279],[73,496],[279,599],[496,526],[599,320],[526,103],[320,0]]","false","8","main_T2_Trial","s","img/Fire_Up_Target.gif","[""img/Fire_Down_Distractor.gif"",""img/Fire_Down_Distractor.gif"",""img/Fire_Down_Distractor.gif"",""img/Fire_Down_Distractor.gif"",""img/Fire_Down_Distractor.gif"",""img/Fire_Down_Distractor.gif"",""img/Fire_Down_Distractor.gif"",""img/Fire_Down_Distractor.gif"",""img/Fire_Down_Distractor.gif"",""img/Fire_Down_Distractor.gif"",""img/Fire_Down_Distractor.gif"",""img/Fire_Down_Distractor.gif""]","8","targetUp_distractorsDown"
"","","","","","html-keyboard-response","96","228541","0.0-14.0-0.0-0.41","5fbeef08fae48b16613fbe94","619531dcf66c91622fa1b861","619597cfdbf55536a91ea0f8","null","","null","","","","","main_T1_ITI","","","","",""
"","","","","","visual-search-circle","97","229807","0.0-14.0-0.0-1.41","5fbeef08fae48b16613fbe94","619531dcf66c91622fa1b861","619597cfdbf55536a91ea0f8","264.20000000018626","","s","true","[[37,154],[154,562],[562,445],[445,37]]","false","4","main_T2_Trial","s","img/Fire_Down_Target.gif","[""img/Fire_Up_Distractor.gif"",""img/Fire_Up_Distractor.gif"",""img/Fire_Up_Distractor.gif"",""img/Fire_Up_Distractor.gif"",""img/Fire_Up_Distractor.gif"",""img/Fire_Up_Distractor.gif"",""img/Fire_Up_Distractor.gif"",""img/Fire_Up_Distractor.gif"",""img/Fire_Up_Distractor.gif"",""img/Fire_Up_Distractor.gif"",""img/Fire_Up_Distractor.gif"",""img/Fire_Up_Distractor.gif""]","4","targetDown_distractorsUp"
"","","","","","html-keyboard-response","98","229809","0.0-14.0-0.0-0.42","5fbeef08fae48b16613fbe94","619531dcf66c91622fa1b861","619597cfdbf55536a91ea0f8","null","","null","","","","","main_T1_ITI","","","","",""
"","","","","","visual-search-circle","99","231137","0.0-14.0-0.0-1.42","5fbeef08fae48b16613fbe94","619531dcf66c91622fa1b861","619597cfdbf55536a91ea0f8","313.79999999981374","","d","false","[[70,107],[1,326],[107,529],[326,598],[529,492],[598,273],[492,70],[273,1]]","false","8","main_T2_Trial","s","img/Fire_Down_Target.gif","[""img/Fire_Up_Distractor.gif"",""img/Fire_Up_Distractor.gif"",""img/Fire_Up_Distractor.gif"",""img/Fire_Up_Distractor.gif"",""img/Fire_Up_Distractor.gif"",""img/Fire_Up_Distractor.gif"",""img/Fire_Up_Distractor.gif"",""img/Fire_Up_Distractor.gif"",""img/Fire_Up_Distractor.gif"",""img/Fire_Up_Distractor.gif"",""img/Fire_Up_Distractor.gif"",""img/Fire_Up_Distractor.gif""]","8","targetDown_distractorsUp"
"","","","","","html-keyboard-response","100","231139","0.0-14.0-0.0-0.43","5fbeef08fae48b16613fbe94","619531dcf66c91622fa1b861","619597cfdbf55536a91ea0f8","null","","null","","","","","main_T1_ITI","","","","",""
"","","","","","visual-search-circle","101","232466","0.0-14.0-0.0-1.43","5fbeef08fae48b16613fbe94","619531dcf66c91622fa1b861","619597cfdbf55536a91ea0f8","323.29999999981374","","d","false","[[591,372],[372,8],[8,227],[227,591]]","false","4","main_T2_Trial","s","img/Fire_Up_Target.gif","[""img/Fire_Down_Distractor.gif"",""img/Fire_Down_Distractor.gif"",""img/Fire_Down_Distractor.gif"",""img/Fire_Down_Distractor.gif"",""img/Fire_Down_Distractor.gif"",""img/Fire_Down_Distractor.gif"",""img/Fire_Down_Distractor.gif"",""img/Fire_Down_Distractor.gif"",""img/Fire_Down_Distractor.gif"",""img/Fire_Down_Distractor.gif"",""img/Fire_Down_Distractor.gif"",""img/Fire_Down_Distractor.gif""]","4","targetUp_distractorsDown"
"","","","","","html-keyboard-response","102","232468","0.0-14.0-0.0-0.44","5fbeef08fae48b16613fbe94","619531dcf66c91622fa1b861","619597cfdbf55536a91ea0f8","null","","null","","","","","main_T1_ITI","","","","",""
"","","","","","visual-search-circle","103","233997","0.0-14.0-0.0-1.44","5fbeef08fae48b16613fbe94","619531dcf66c91622fa1b861","619597cfdbf55536a91ea0f8","520.7999999998137","","s","false","[[30,431],[431,569],[569,168],[168,30]]","true","4","main_T2_Trial","d","img/Fire_Down_Target.gif","[""img/Fire_Up_Distractor.gif"",""img/Fire_Up_Distractor.gif"",""img/Fire_Up_Distractor.gif"",""img/Fire_Up_Distractor.gif"",""img/Fire_Up_Distractor.gif"",""img/Fire_Up_Distractor.gif"",""img/Fire_Up_Distractor.gif"",""img/Fire_Up_Distractor.gif"",""img/Fire_Up_Distractor.gif"",""img/Fire_Up_Distractor.gif"",""img/Fire_Up_Distractor.gif"",""img/Fire_Up_Distractor.gif""]","4","targetDown_distractorsUp"
"","","","","","html-keyboard-response","104","233999","0.0-14.0-0.0-0.45","5fbeef08fae48b16613fbe94","619531dcf66c91622fa1b861","619597cfdbf55536a91ea0f8","null","","null","","","","","main_T1_ITI","","","","",""
"","","","","","visual-search-circle","105","235344","0.0-14.0-0.0-1.45","5fbeef08fae48b16613fbe94","619531dcf66c91622fa1b861","619597cfdbf55536a91ea0f8","333.79999999981374","","s","false","[[187,578],[417,576],[578,412],[576,182],[412,21],[182,23],[21,187],[23,417]]","true","8","main_T2_Trial","d","img/Fire_Up_Target.gif","[""img/Fire_Down_Distractor.gif"",""img/Fire_Down_Distractor.gif"",""img/Fire_Down_Distractor.gif"",""img/Fire_Down_Distractor.gif"",""img/Fire_Down_Distractor.gif"",""img/Fire_Down_Distractor.gif"",""img/Fire_Down_Distractor.gif"",""img/Fire_Down_Distractor.gif"",""img/Fire_Down_Distractor.gif"",""img/Fire_Down_Distractor.gif"",""img/Fire_Down_Distractor.gif"",""img/Fire_Down_Distractor.gif""]","8","targetUp_distractorsDown"
"","","","","","html-keyboard-response","106","235347","0.0-14.0-0.0-0.46","5fbeef08fae48b16613fbe94","619531dcf66c91622fa1b861","619597cfdbf55536a91ea0f8","null","","null","","","","","main_T1_ITI","","","","",""
"","","","","","visual-search-circle","107","236748","0.0-14.0-0.0-1.46","5fbeef08fae48b16613fbe94","619531dcf66c91622fa1b861","619597cfdbf55536a91ea0f8","387","","d","true","[[557,145],[339,2],[92,83],[1,327],[135,550],[393,585],[581,404]]","true","7","main_T2_Trial","d","img/Fire_Down_Target.gif","[""img/Fire_Up_Distractor.gif"",""img/Fire_Up_Distractor.gif"",""img/Fire_Up_Distractor.gif"",""img/Fire_Up_Distractor.gif"",""img/Fire_Up_Distractor.gif"",""img/Fire_Up_Distractor.gif"",""img/Fire_Up_Distractor.gif"",""img/Fire_Up_Distractor.gif"",""img/Fire_Up_Distractor.gif"",""img/Fire_Up_Distractor.gif"",""img/Fire_Up_Distractor.gif"",""img/Fire_Up_Distractor.gif""]","7","targetDown_distractorsUp"
"","","","","","html-keyboard-response","108","236750","0.0-14.0-0.0-0.47","5fbeef08fae48b16613fbe94","619531dcf66c91622fa1b861","619597cfdbf55536a91ea0f8","null","","null","","","","","main_T1_ITI","","","","",""
"","","","","","visual-search-circle","109","238128","0.0-14.0-0.0-1.47","5fbeef08fae48b16613fbe94","619531dcf66c91622fa1b861","619597cfdbf55536a91ea0f8","367.09999999962747","","d","true","[[3,346],[192,580],[488,533],[596,253],[407,19],[111,66]]","true","6","main_T2_Trial","d","img/Fire_Up_Target.gif","[""img/Fire_Down_Distractor.gif"",""img/Fire_Down_Distractor.gif"",""img/Fire_Down_Distractor.gif"",""img/Fire_Down_Distractor.gif"",""img/Fire_Down_Distractor.gif"",""img/Fire_Down_Distractor.gif"",""img/Fire_Down_Distractor.gif"",""img/Fire_Down_Distractor.gif"",""img/Fire_Down_Distractor.gif"",""img/Fire_Down_Distractor.gif"",""img/Fire_Down_Distractor.gif"",""img/Fire_Down_Distractor.gif""]","6","targetUp_distractorsDown"
"","","","","","html-keyboard-response","110","238131","0.0-14.0-0.0-0.48","5fbeef08fae48b16613fbe94","619531dcf66c91622fa1b861","619597cfdbf55536a91ea0f8","null","","null","","","","","main_T1_ITI","","","","",""
"","","","","","visual-search-circle","111","239457","0.0-14.0-0.0-1.48","5fbeef08fae48b16613fbe94","619531dcf66c91622fa1b861","619597cfdbf55536a91ea0f8","316.59999999962747","","s","true","[[258,2],[2,341],[341,597],[597,258]]","false","4","main_T2_Trial","s","img/Fire_Down_Target.gif","[""img/Fire_Up_Distractor.gif"",""img/Fire_Up_Distractor.gif"",""img/Fire_Up_Distractor.gif"",""img/Fire_Up_Distractor.gif"",""img/Fire_Up_Distractor.gif"",""img/Fire_Up_Distractor.gif"",""img/Fire_Up_Distractor.gif"",""img/Fire_Up_Distractor.gif"",""img/Fire_Up_Distractor.gif"",""img/Fire_Up_Distractor.gif"",""img/Fire_Up_Distractor.gif"",""img/Fire_Up_Distractor.gif""]","4","targetDown_distractorsUp"
"","","","","","html-keyboard-response","112","239459","0.0-14.0-0.0-0.49","5fbeef08fae48b16613fbe94","619531dcf66c91622fa1b861","619597cfdbf55536a91ea0f8","null","","null","","","","","main_T1_ITI","","","","",""
"","","","","","visual-search-circle","113","240774","0.0-14.0-0.0-1.49","5fbeef08fae48b16613fbe94","619531dcf66c91622fa1b861","619597cfdbf55536a91ea0f8","312.70000000018626","","d","false","[[30,431],[279,599],[548,467],[569,168],[320,0],[51,132]]","false","6","main_T2_Trial","s","img/Fire_Up_Target.gif","[""img/Fire_Down_Distractor.gif"",""img/Fire_Down_Distractor.gif"",""img/Fire_Down_Distractor.gif"",""img/Fire_Down_Distractor.gif"",""img/Fire_Down_Distractor.gif"",""img/Fire_Down_Distractor.gif"",""img/Fire_Down_Distractor.gif"",""img/Fire_Down_Distractor.gif"",""img/Fire_Down_Distractor.gif"",""img/Fire_Down_Distractor.gif"",""img/Fire_Down_Distractor.gif"",""img/Fire_Down_Distractor.gif""]","6","targetUp_distractorsDown"
"","","","","","html-keyboard-response","114","240776","0.0-14.0-0.0-0.50","5fbeef08fae48b16613fbe94","619531dcf66c91622fa1b861","619597cfdbf55536a91ea0f8","null","","null","","","","","main_T1_ITI","","","","",""
"","","","","","visual-search-circle","115","242167","0.0-14.0-0.0-1.50","5fbeef08fae48b16613fbe94","619531dcf66c91622fa1b861","619597cfdbf55536a91ea0f8","390.20000000018626","","s","true","[[417,23],[23,182],[182,576],[576,417]]","false","4","main_T2_Trial","s","img/Fire_Down_Target.gif","[""img/Fire_Up_Distractor.gif"",""img/Fire_Up_Distractor.gif"",""img/Fire_Up_Distractor.gif"",""img/Fire_Up_Distractor.gif"",""img/Fire_Up_Distractor.gif"",""img/Fire_Up_Distractor.gif"",""img/Fire_Up_Distractor.gif"",""img/Fire_Up_Distractor.gif"",""img/Fire_Up_Distractor.gif"",""img/Fire_Up_Distractor.gif"",""img/Fire_Up_Distractor.gif"",""img/Fire_Up_Distractor.gif""]","4","targetDown_distractorsUp"
"","","","","","html-keyboard-response","116","242169","0.0-14.0-0.0-0.51","5fbeef08fae48b16613fbe94","619531dcf66c91622fa1b861","619597cfdbf55536a91ea0f8","null","","null","","","","","main_T1_ITI","","","","",""
"","","","","","visual-search-circle","117","243619","0.0-14.0-0.0-1.51","5fbeef08fae48b16613fbe94","619531dcf66c91622fa1b861","619597cfdbf55536a91ea0f8","439.8999999994412","","d","false","[[57,123],[3,346],[123,542],[346,596],[542,476],[596,253],[476,57],[253,3]]","false","8","main_T2_Trial","s","img/Fire_Down_Target.gif","[""img/Fire_Up_Distractor.gif"",""img/Fire_Up_Distractor.gif"",""img/Fire_Up_Distractor.gif"",""img/Fire_Up_Distractor.gif"",""img/Fire_Up_Distractor.gif"",""img/Fire_Up_Distractor.gif"",""img/Fire_Up_Distractor.gif"",""img/Fire_Up_Distractor.gif"",""img/Fire_Up_Distractor.gif"",""img/Fire_Up_Distractor.gif"",""img/Fire_Up_Distractor.gif"",""img/Fire_Up_Distractor.gif""]","8","targetDown_distractorsUp"
"","","","","","html-keyboard-response","118","243622","0.0-14.0-0.0-0.52","5fbeef08fae48b16613fbe94","619531dcf66c91622fa1b861","619597cfdbf55536a91ea0f8","null","","null","","","","","main_T1_ITI","","","","",""
"","","","","","visual-search-circle","119","245080","0.0-14.0-0.0-1.52","5fbeef08fae48b16613fbe94","619531dcf66c91622fa1b861","619597cfdbf55536a91ea0f8","452.09999999962747","","s","false","[[16,397],[242,594],[526,496],[583,202],[357,5],[73,103]]","true","6","main_T2_Trial","d","img/Fire_Down_Target.gif","[""img/Fire_Up_Distractor.gif"",""img/Fire_Up_Distractor.gif"",""img/Fire_Up_Distractor.gif"",""img/Fire_Up_Distractor.gif"",""img/Fire_Up_Distractor.gif"",""img/Fire_Up_Distractor.gif"",""img/Fire_Up_Distractor.gif"",""img/Fire_Up_Distractor.gif"",""img/Fire_Up_Distractor.gif"",""img/Fire_Up_Distractor.gif"",""img/Fire_Up_Distractor.gif"",""img/Fire_Up_Distractor.gif""]","6","targetDown_distractorsUp"
"","","","","","html-keyboard-response","120","245082","0.0-14.0-0.0-0.53","5fbeef08fae48b16613fbe94","619531dcf66c91622fa1b861","619597cfdbf55536a91ea0f8","null","","null","","","","","main_T1_ITI","","","","",""
"","","","","","visual-search-circle","121","247172","0.0-14.0-0.0-1.53","5fbeef08fae48b16613fbe94","619531dcf66c91622fa1b861","619597cfdbf55536a91ea0f8","1081.7000000001863","","d","true","[[14,392],[237,593],[522,500],[585,207],[362,6],[77,99]]","true","6","main_T2_Trial","d","img/Fire_Up_Target.gif","[""img/Fire_Down_Distractor.gif"",""img/Fire_Down_Distractor.gif"",""img/Fire_Down_Distractor.gif"",""img/Fire_Down_Distractor.gif"",""img/Fire_Down_Distractor.gif"",""img/Fire_Down_Distractor.gif"",""img/Fire_Down_Distractor.gif"",""img/Fire_Down_Distractor.gif"",""img/Fire_Down_Distractor.gif"",""img/Fire_Down_Distractor.gif"",""img/Fire_Down_Distractor.gif"",""img/Fire_Down_Distractor.gif""]","6","targetUp_distractorsDown"
"","","","","","html-keyboard-response","122","247173","0.0-14.0-0.0-0.54","5fbeef08fae48b16613fbe94","619531dcf66c91622fa1b861","619597cfdbf55536a91ea0f8","null","","null","","","","","main_T1_ITI","","","","",""
"","","","","","visual-search-circle","123","248527","0.0-14.0-0.0-1.54","5fbeef08fae48b16613fbe94","619531dcf66c91622fa1b861","619597cfdbf55536a91ea0f8","348.59999999962747","","s","false","[[467,51],[115,63],[18,402],[310,599],[588,382]]","true","5","main_T2_Trial","d","img/Fire_Down_Target.gif","[""img/Fire_Up_Distractor.gif"",""img/Fire_Up_Distractor.gif"",""img/Fire_Up_Distractor.gif"",""img/Fire_Up_Distractor.gif"",""img/Fire_Up_Distractor.gif"",""img/Fire_Up_Distractor.gif"",""img/Fire_Up_Distractor.gif"",""img/Fire_Up_Distractor.gif"",""img/Fire_Up_Distractor.gif"",""img/Fire_Up_Distractor.gif"",""img/Fire_Up_Distractor.gif"",""img/Fire_Up_Distractor.gif""]","5","targetDown_distractorsUp"
"","","","","","html-keyboard-response","124","248529","0.0-14.0-0.0-0.55","5fbeef08fae48b16613fbe94","619531dcf66c91622fa1b861","619597cfdbf55536a91ea0f8","null","","null","","","","","main_T1_ITI","","","","",""
"","","","","","visual-search-circle","125","249883","0.0-14.0-0.0-1.55","5fbeef08fae48b16613fbe94","619531dcf66c91622fa1b861","619597cfdbf55536a91ea0f8","349.70000000018626","","d","true","[[247,4],[18,197],[70,492],[352,595],[581,402],[529,107]]","true","6","main_T2_Trial","d","img/Fire_Down_Target.gif","[""img/Fire_Up_Distractor.gif"",""img/Fire_Up_Distractor.gif"",""img/Fire_Up_Distractor.gif"",""img/Fire_Up_Distractor.gif"",""img/Fire_Up_Distractor.gif"",""img/Fire_Up_Distractor.gif"",""img/Fire_Up_Distractor.gif"",""img/Fire_Up_Distractor.gif"",""img/Fire_Up_Distractor.gif"",""img/Fire_Up_Distractor.gif"",""img/Fire_Up_Distractor.gif"",""img/Fire_Up_Distractor.gif""]","6","targetDown_distractorsUp"
"","","","","","html-keyboard-response","126","249886","0.0-14.0-0.0-0.56","5fbeef08fae48b16613fbe94","619531dcf66c91622fa1b861","619597cfdbf55536a91ea0f8","null","","null","","","","","main_T1_ITI","","","","",""
"","","","","","visual-search-circle","127","251273","0.0-14.0-0.0-1.56","5fbeef08fae48b16613fbe94","619531dcf66c91622fa1b861","619597cfdbf55536a91ea0f8","378.5","","s","false","[[310,0],[0,289],[289,599],[599,310]]","true","4","main_T2_Trial","d","img/Fire_Up_Target.gif","[""img/Fire_Down_Distractor.gif"",""img/Fire_Down_Distractor.gif"",""img/Fire_Down_Distractor.gif"",""img/Fire_Down_Distractor.gif"",""img/Fire_Down_Distractor.gif"",""img/Fire_Down_Distractor.gif"",""img/Fire_Down_Distractor.gif"",""img/Fire_Down_Distractor.gif"",""img/Fire_Down_Distractor.gif"",""img/Fire_Down_Distractor.gif"",""img/Fire_Down_Distractor.gif"",""img/Fire_Down_Distractor.gif""]","4","targetUp_distractorsDown"
"","","","","","html-keyboard-response","128","251275","0.0-14.0-0.0-0.57","5fbeef08fae48b16613fbe94","619531dcf66c91622fa1b861","619597cfdbf55536a91ea0f8","null","","null","","","","","main_T1_ITI","","","","",""
"","","","","","visual-search-circle","129","252989","0.0-14.0-0.0-1.57","5fbeef08fae48b16613fbe94","619531dcf66c91622fa1b861","619597cfdbf55536a91ea0f8","710","","d","false","[[595,247],[402,18],[107,70],[4,352],[197,581],[492,529]]","false","6","main_T2_Trial","s","img/Fire_Up_Target.gif","[""img/Fire_Down_Distractor.gif"",""img/Fire_Down_Distractor.gif"",""img/Fire_Down_Distractor.gif"",""img/Fire_Down_Distractor.gif"",""img/Fire_Down_Distractor.gif"",""img/Fire_Down_Distractor.gif"",""img/Fire_Down_Distractor.gif"",""img/Fire_Down_Distractor.gif"",""img/Fire_Down_Distractor.gif"",""img/Fire_Down_Distractor.gif"",""img/Fire_Down_Distractor.gif"",""img/Fire_Down_Distractor.gif""]","6","targetUp_distractorsDown"
"","","","","","html-keyboard-response","130","252991","0.0-14.0-0.0-0.58","5fbeef08fae48b16613fbe94","619531dcf66c91622fa1b861","619597cfdbf55536a91ea0f8","null","","null","","","","","main_T1_ITI","","","","",""
"","","","","","visual-search-circle","131","254350","0.0-14.0-0.0-1.58","5fbeef08fae48b16613fbe94","619531dcf66c91622fa1b861","619597cfdbf55536a91ea0f8","354.59999999962747","","d","false","[[0,310],[159,564],[458,554],[599,289],[440,35],[141,45]]","false","6","main_T2_Trial","s","img/Fire_Down_Target.gif","[""img/Fire_Up_Distractor.gif"",""img/Fire_Up_Distractor.gif"",""img/Fire_Up_Distractor.gif"",""img/Fire_Up_Distractor.gif"",""img/Fire_Up_Distractor.gif"",""img/Fire_Up_Distractor.gif"",""img/Fire_Up_Distractor.gif"",""img/Fire_Up_Distractor.gif"",""img/Fire_Up_Distractor.gif"",""img/Fire_Up_Distractor.gif"",""img/Fire_Up_Distractor.gif"",""img/Fire_Up_Distractor.gif""]","6","targetDown_distractorsUp"
"","","","","","html-keyboard-response","132","497874","0.0-14.0-0.0-0.59","5fbeef08fae48b16613fbe94","619531dcf66c91622fa1b861","619597cfdbf55536a91ea0f8","243523.80000000075","Wow! You've completed 60 out of 160 trials! </p> <p>  </p><p> Take a quick break, then press any key when you're ready to continue."," ","","","","","main_T1_ITI","","","","",""
"","","","","","visual-search-circle","133","501477","0.0-14.0-0.0-1.59","5fbeef08fae48b16613fbe94","619531dcf66c91622fa1b861","619597cfdbf55536a91ea0f8","2585","","s","false","[[545,127],[352,4],[127,54],[4,247],[54,472],[247,595],[472,545],[595,352]]","true","8","main_T2_Trial","d","img/Fire_Down_Target.gif","[""img/Fire_Up_Distractor.gif"",""img/Fire_Up_Distractor.gif"",""img/Fire_Up_Distractor.gif"",""img/Fire_Up_Distractor.gif"",""img/Fire_Up_Distractor.gif"",""img/Fire_Up_Distractor.gif"",""img/Fire_Up_Distractor.gif"",""img/Fire_Up_Distractor.gif"",""img/Fire_Up_Distractor.gif"",""img/Fire_Up_Distractor.gif"",""img/Fire_Up_Distractor.gif"",""img/Fire_Up_Distractor.gif""]","8","targetDown_distractorsUp"
"","","","","","html-keyboard-response","134","501480","0.0-14.0-0.0-0.60","5fbeef08fae48b16613fbe94","619531dcf66c91622fa1b861","619597cfdbf55536a91ea0f8","null","","null","","","","","main_T1_ITI","","","","",""
"","","","","","visual-search-circle","135","503344","0.0-14.0-0.0-1.60","5fbeef08fae48b16613fbe94","619531dcf66c91622fa1b861","619597cfdbf55536a91ea0f8","862.4000000003725","","d","false","[[136,48],[10,377],[284,599],[580,407],[488,66]]","false","5","main_T2_Trial","s","img/Fire_Up_Target.gif","[""img/Fire_Down_Distractor.gif"",""img/Fire_Down_Distractor.gif"",""img/Fire_Down_Distractor.gif"",""img/Fire_Down_Distractor.gif"",""img/Fire_Down_Distractor.gif"",""img/Fire_Down_Distractor.gif"",""img/Fire_Down_Distractor.gif"",""img/Fire_Down_Distractor.gif"",""img/Fire_Down_Distractor.gif"",""img/Fire_Down_Distractor.gif"",""img/Fire_Down_Distractor.gif"",""img/Fire_Down_Distractor.gif""]","5","targetUp_distractorsDown"
"","","","","","html-keyboard-response","136","503346","0.0-14.0-0.0-0.61","5fbeef08fae48b16613fbe94","619531dcf66c91622fa1b861","619597cfdbf55536a91ea0f8","null","","null","","","","","main_T1_ITI","","","","",""
"","","","","","visual-search-circle","137","504646","0.0-14.0-0.0-1.61","5fbeef08fae48b16613fbe94","619531dcf66c91622fa1b861","619597cfdbf55536a91ea0f8","292.5","","s","true","[[232,592],[486,535],[599,300],[487,65],[233,7],[30,169],[29,429]]","false","7","main_T2_Trial","s","img/Fire_Down_Target.gif","[""img/Fire_Up_Distractor.gif"",""img/Fire_Up_Distractor.gif"",""img/Fire_Up_Distractor.gif"",""img/Fire_Up_Distractor.gif"",""img/Fire_Up_Distractor.gif"",""img/Fire_Up_Distractor.gif"",""img/Fire_Up_Distractor.gif"",""img/Fire_Up_Distractor.gif"",""img/Fire_Up_Distractor.gif"",""img/Fire_Up_Distractor.gif"",""img/Fire_Up_Distractor.gif"",""img/Fire_Up_Distractor.gif""]","7","targetDown_distractorsUp"
"","","","","","html-keyboard-response","138","504649","0.0-14.0-0.0-0.62","5fbeef08fae48b16613fbe94","619531dcf66c91622fa1b861","619597cfdbf55536a91ea0f8","null","","null","","","","","main_T1_ITI","","","","",""
"","","","","","visual-search-circle","139","505928","0.0-14.0-0.0-1.62","5fbeef08fae48b16613fbe94","619531dcf66c91622fa1b861","619597cfdbf55536a91ea0f8","268.29999999981374","","d","false","[[484,63],[263,2],[63,115],[2,336],[115,536],[336,597],[536,484],[597,263]]","false","8","main_T2_Trial","s","img/Fire_Down_Target.gif","[""img/Fire_Up_Distractor.gif"",""img/Fire_Up_Distractor.gif"",""img/Fire_Up_Distractor.gif"",""img/Fire_Up_Distractor.gif"",""img/Fire_Up_Distractor.gif"",""img/Fire_Up_Distractor.gif"",""img/Fire_Up_Distractor.gif"",""img/Fire_Up_Distractor.gif"",""img/Fire_Up_Distractor.gif"",""img/Fire_Up_Distractor.gif"",""img/Fire_Up_Distractor.gif"",""img/Fire_Up_Distractor.gif""]","8","targetDown_distractorsUp"
"","","","","","html-keyboard-response","140","505931","0.0-14.0-0.0-0.63","5fbeef08fae48b16613fbe94","619531dcf66c91622fa1b861","619597cfdbf55536a91ea0f8","null","","null","","","","","main_T1_ITI","","","","",""
"","","","","","visual-search-circle","141","507064","0.0-14.0-0.0-1.63","5fbeef08fae48b16613fbe94","619531dcf66c91622fa1b861","619597cfdbf55536a91ea0f8","128.8999999994412","","s","false","[[63,484],[297,599],[532,489],[593,236],[432,31],[172,28],[8,230]]","true","7","main_T2_Trial","d","img/Fire_Up_Target.gif","[""img/Fire_Down_Distractor.gif"",""img/Fire_Down_Distractor.gif"",""img/Fire_Down_Distractor.gif"",""img/Fire_Down_Distractor.gif"",""img/Fire_Down_Distractor.gif"",""img/Fire_Down_Distractor.gif"",""img/Fire_Down_Distractor.gif"",""img/Fire_Down_Distractor.gif"",""img/Fire_Down_Distractor.gif"",""img/Fire_Down_Distractor.gif"",""img/Fire_Down_Distractor.gif"",""img/Fire_Down_Distractor.gif""]","7","targetUp_distractorsDown"
"","","","","","html-keyboard-response","142","507067","0.0-14.0-0.0-0.64","5fbeef08fae48b16613fbe94","619531dcf66c91622fa1b861","619597cfdbf55536a91ea0f8","null","","null","","","","","main_T1_ITI","","","","",""
"","","","","","visual-search-circle","143","508920","0.0-14.0-0.0-1.64","5fbeef08fae48b16613fbe94","619531dcf66c91622fa1b861","619597cfdbf55536a91ea0f8","845.7999999998137","","d","true","[[450,40],[150,40],[0,299],[149,559],[450,559],[600,300]]","true","6","main_T2_Trial","d","img/Fire_Up_Target.gif","[""img/Fire_Down_Distractor.gif"",""img/Fire_Down_Distractor.gif"",""img/Fire_Down_Distractor.gif"",""img/Fire_Down_Distractor.gif"",""img/Fire_Down_Distractor.gif"",""img/Fire_Down_Distractor.gif"",""img/Fire_Down_Distractor.gif"",""img/Fire_Down_Distractor.gif"",""img/Fire_Down_Distractor.gif"",""img/Fire_Down_Distractor.gif"",""img/Fire_Down_Distractor.gif"",""img/Fire_Down_Distractor.gif""]","6","targetUp_distractorsDown"
"","","","","","html-keyboard-response","144","508922","0.0-14.0-0.0-0.65","5fbeef08fae48b16613fbe94","619531dcf66c91622fa1b861","619597cfdbf55536a91ea0f8","null","","null","","","","","main_T1_ITI","","","","",""
"","","","","","visual-search-circle","145","510071","0.0-14.0-0.0-1.65","5fbeef08fae48b16613fbe94","619531dcf66c91622fa1b861","619597cfdbf55536a91ea0f8","144.8999999994412","","d","true","[[159,35],[4,352],[258,597],[569,431],[508,84]]","true","5","main_T2_Trial","d","img/Fire_Down_Target.gif","[""img/Fire_Up_Distractor.gif"",""img/Fire_Up_Distractor.gif"",""img/Fire_Up_Distractor.gif"",""img/Fire_Up_Distractor.gif"",""img/Fire_Up_Distractor.gif"",""img/Fire_Up_Distractor.gif"",""img/Fire_Up_Distractor.gif"",""img/Fire_Up_Distractor.gif"",""img/Fire_Up_Distractor.gif"",""img/Fire_Up_Distractor.gif"",""img/Fire_Up_Distractor.gif"",""img/Fire_Up_Distractor.gif""]","5","targetDown_distractorsUp"
"","","","","","html-keyboard-response","146","510072","0.0-14.0-0.0-0.66","5fbeef08fae48b16613fbe94","619531dcf66c91622fa1b861","619597cfdbf55536a91ea0f8","null","","null","","","","","main_T1_ITI","","","","",""
"","","","","","visual-search-circle","147","511125","0.0-14.0-0.0-1.66","5fbeef08fae48b16613fbe94","619531dcf66c91622fa1b861","619597cfdbf55536a91ea0f8","49.700000000186265","","d","false","[[529,107],[187,21],[0,320],[227,591],[554,458]]","false","5","main_T2_Trial","s","img/Fire_Down_Target.gif","[""img/Fire_Up_Distractor.gif"",""img/Fire_Up_Distractor.gif"",""img/Fire_Up_Distractor.gif"",""img/Fire_Up_Distractor.gif"",""img/Fire_Up_Distractor.gif"",""img/Fire_Up_Distractor.gif"",""img/Fire_Up_Distractor.gif"",""img/Fire_Up_Distractor.gif"",""img/Fire_Up_Distractor.gif"",""img/Fire_Up_Distractor.gif"",""img/Fire_Up_Distractor.gif"",""img/Fire_Up_Distractor.gif""]","5","targetDown_distractorsUp"
"","","","","","html-keyboard-response","148","511126","0.0-14.0-0.0-0.67","5fbeef08fae48b16613fbe94","619531dcf66c91622fa1b861","619597cfdbf55536a91ea0f8","null","","null","","","","","main_T1_ITI","","","","",""
"","","","","","visual-search-circle","149","512261","0.0-14.0-0.0-1.67","5fbeef08fae48b16613fbe94","619531dcf66c91622fa1b861","619597cfdbf55536a91ea0f8","131.6000000005588","","s","false","[[526,103],[103,73],[73,496],[496,526]]","true","4","main_T2_Trial","d","img/Fire_Down_Target.gif","[""img/Fire_Up_Distractor.gif"",""img/Fire_Up_Distractor.gif"",""img/Fire_Up_Distractor.gif"",""img/Fire_Up_Distractor.gif"",""img/Fire_Up_Distractor.gif"",""img/Fire_Up_Distractor.gif"",""img/Fire_Up_Distractor.gif"",""img/Fire_Up_Distractor.gif"",""img/Fire_Up_Distractor.gif"",""img/Fire_Up_Distractor.gif"",""img/Fire_Up_Distractor.gif"",""img/Fire_Up_Distractor.gif""]","4","targetDown_distractorsUp"
"","","","","","html-keyboard-response","150","512264","0.0-14.0-0.0-0.68","5fbeef08fae48b16613fbe94","619531dcf66c91622fa1b861","619597cfdbf55536a91ea0f8","null","","null","","","","","main_T1_ITI","","","","",""
"","","","","","visual-search-circle","151","513285","0.0-14.0-0.0-1.68","5fbeef08fae48b16613fbe94","619531dcf66c91622fa1b861","619597cfdbf55536a91ea0f8","15.399999999441206","","d","true","[[382,588],[588,217],[217,11],[11,382]]","true","4","main_T2_Trial","d","img/Fire_Up_Target.gif","[""img/Fire_Down_Distractor.gif"",""img/Fire_Down_Distractor.gif"",""img/Fire_Down_Distractor.gif"",""img/Fire_Down_Distractor.gif"",""img/Fire_Down_Distractor.gif"",""img/Fire_Down_Distractor.gif"",""img/Fire_Down_Distractor.gif"",""img/Fire_Down_Distractor.gif"",""img/Fire_Down_Distractor.gif"",""img/Fire_Down_Distractor.gif"",""img/Fire_Down_Distractor.gif"",""img/Fire_Down_Distractor.gif""]","4","targetUp_distractorsDown"
"","","","","","html-keyboard-response","152","513287","0.0-14.0-0.0-0.69","5fbeef08fae48b16613fbe94","619531dcf66c91622fa1b861","619597cfdbf55536a91ea0f8","null","","null","","","","","main_T1_ITI","","","","",""
"","","","","","visual-search-circle","153","514423","0.0-14.0-0.0-1.69","5fbeef08fae48b16613fbe94","619531dcf66c91622fa1b861","619597cfdbf55536a91ea0f8","129.90000000037253","","s","false","[[173,571],[472,545],[598,273],[426,28],[127,54],[1,326]]","true","6","main_T2_Trial","d","img/Fire_Down_Target.gif","[""img/Fire_Up_Distractor.gif"",""img/Fire_Up_Distractor.gif"",""img/Fire_Up_Distractor.gif"",""img/Fire_Up_Distractor.gif"",""img/Fire_Up_Distractor.gif"",""img/Fire_Up_Distractor.gif"",""img/Fire_Up_Distractor.gif"",""img/Fire_Up_Distractor.gif"",""img/Fire_Up_Distractor.gif"",""img/Fire_Up_Distractor.gif"",""img/Fire_Up_Distractor.gif"",""img/Fire_Up_Distractor.gif""]","6","targetDown_distractorsUp"
"","","","","","html-keyboard-response","154","514424","0.0-14.0-0.0-0.70","5fbeef08fae48b16613fbe94","619531dcf66c91622fa1b861","619597cfdbf55536a91ea0f8","null","","null","","","","","main_T1_ITI","","","","",""
"","","","","","visual-search-circle","155","515449","0.0-14.0-0.0-1.70","5fbeef08fae48b16613fbe94","619531dcf66c91622fa1b861","619597cfdbf55536a91ea0f8","23.399999999441206","","s","false","[[177,25],[25,422],[422,574],[574,177]]","true","4","main_T2_Trial","d","img/Fire_Up_Target.gif","[""img/Fire_Down_Distractor.gif"",""img/Fire_Down_Distractor.gif"",""img/Fire_Down_Distractor.gif"",""img/Fire_Down_Distractor.gif"",""img/Fire_Down_Distractor.gif"",""img/Fire_Down_Distractor.gif"",""img/Fire_Down_Distractor.gif"",""img/Fire_Down_Distractor.gif"",""img/Fire_Down_Distractor.gif"",""img/Fire_Down_Distractor.gif"",""img/Fire_Down_Distractor.gif"",""img/Fire_Down_Distractor.gif""]","4","targetUp_distractorsDown"
"","","","","","html-keyboard-response","156","515452","0.0-14.0-0.0-0.71","5fbeef08fae48b16613fbe94","619531dcf66c91622fa1b861","619597cfdbf55536a91ea0f8","null","","null","","","","","main_T1_ITI","","","","",""
"","","","","","visual-search-circle","157","516552","0.0-14.0-0.0-1.71","5fbeef08fae48b16613fbe94","619531dcf66c91622fa1b861","619597cfdbf55536a91ea0f8","91.3999999994412","","d","false","[[554,141],[289,0],[35,159],[45,458],[310,599],[564,440]]","false","6","main_T2_Trial","s","img/Fire_Up_Target.gif","[""img/Fire_Down_Distractor.gif"",""img/Fire_Down_Distractor.gif"",""img/Fire_Down_Distractor.gif"",""img/Fire_Down_Distractor.gif"",""img/Fire_Down_Distractor.gif"",""img/Fire_Down_Distractor.gif"",""img/Fire_Down_Distractor.gif"",""img/Fire_Down_Distractor.gif"",""img/Fire_Down_Distractor.gif"",""img/Fire_Down_Distractor.gif"",""img/Fire_Down_Distractor.gif"",""img/Fire_Down_Distractor.gif""]","6","targetUp_distractorsDown"
"","","","","","html-keyboard-response","158","516554","0.0-14.0-0.0-0.72","5fbeef08fae48b16613fbe94","619531dcf66c91622fa1b861","619597cfdbf55536a91ea0f8","null","","null","","","","","main_T1_ITI","","","","",""
"","","","","","visual-search-circle","159","517579","0.0-14.0-0.0-1.72","5fbeef08fae48b16613fbe94","619531dcf66c91622fa1b861","619597cfdbf55536a91ea0f8","19.5","","d","false","[[372,591],[599,320],[412,21],[70,107],[45,458]]","false","5","main_T2_Trial","s","img/Fire_Up_Target.gif","[""img/Fire_Down_Distractor.gif"",""img/Fire_Down_Distractor.gif"",""img/Fire_Down_Distractor.gif"",""img/Fire_Down_Distractor.gif"",""img/Fire_Down_Distractor.gif"",""img/Fire_Down_Distractor.gif"",""img/Fire_Down_Distractor.gif"",""img/Fire_Down_Distractor.gif"",""img/Fire_Down_Distractor.gif"",""img/Fire_Down_Distractor.gif"",""img/Fire_Down_Distractor.gif"",""img/Fire_Down_Distractor.gif""]","5","targetUp_distractorsDown"
"","","","","","html-keyboard-response","160","517581","0.0-14.0-0.0-0.73","5fbeef08fae48b16613fbe94","619531dcf66c91622fa1b861","619597cfdbf55536a91ea0f8","null","","null","","","","","main_T1_ITI","","","","",""
"","","","","","visual-search-circle","161","518688","0.0-14.0-0.0-1.73","5fbeef08fae48b16613fbe94","619531dcf66c91622fa1b861","619597cfdbf55536a91ea0f8","98.3999999994412","","s","true","[[32,436],[346,596],[596,346],[436,32],[87,87]]","false","5","main_T2_Trial","s","img/Fire_Up_Target.gif","[""img/Fire_Down_Distractor.gif"",""img/Fire_Down_Distractor.gif"",""img/Fire_Down_Distractor.gif"",""img/Fire_Down_Distractor.gif"",""img/Fire_Down_Distractor.gif"",""img/Fire_Down_Distractor.gif"",""img/Fire_Down_Distractor.gif"",""img/Fire_Down_Distractor.gif"",""img/Fire_Down_Distractor.gif"",""img/Fire_Down_Distractor.gif"",""img/Fire_Down_Distractor.gif"",""img/Fire_Down_Distractor.gif""]","5","targetUp_distractorsDown"
"","","","","","html-keyboard-response","162","518690","0.0-14.0-0.0-0.74","5fbeef08fae48b16613fbe94","619531dcf66c91622fa1b861","619597cfdbf55536a91ea0f8","null","","null","","","","","main_T1_ITI","","","","",""
"","","","","","visual-search-circle","163","519701","0.0-14.0-0.0-1.74","5fbeef08fae48b16613fbe94","619531dcf66c91622fa1b861","619597cfdbf55536a91ea0f8","6.2999999998137355","","s","false","[[263,2],[63,115],[2,336],[115,536],[336,597],[536,484],[597,263],[484,63]]","true","8","main_T2_Trial","d","img/Fire_Down_Target.gif","[""img/Fire_Up_Distractor.gif"",""img/Fire_Up_Distractor.gif"",""img/Fire_Up_Distractor.gif"",""img/Fire_Up_Distractor.gif"",""img/Fire_Up_Distractor.gif"",""img/Fire_Up_Distractor.gif"",""img/Fire_Up_Distractor.gif"",""img/Fire_Up_Distractor.gif"",""img/Fire_Up_Distractor.gif"",""img/Fire_Up_Distractor.gif"",""img/Fire_Up_Distractor.gif"",""img/Fire_Up_Distractor.gif""]","8","targetDown_distractorsUp"
"","","","","","html-keyboard-response","164","519704","0.0-14.0-0.0-0.75","5fbeef08fae48b16613fbe94","619531dcf66c91622fa1b861","619597cfdbf55536a91ea0f8","null","","null","","","","","main_T1_ITI","","","","",""
"","","","","","visual-search-circle","165","520793","0.0-14.0-0.0-1.75","5fbeef08fae48b16613fbe94","619531dcf66c91622fa1b861","619597cfdbf55536a91ea0f8","83","","d","true","[[192,580],[533,488],[551,136],[222,10],[0,284]]","true","5","main_T2_Trial","d","img/Fire_Up_Target.gif","[""img/Fire_Down_Distractor.gif"",""img/Fire_Down_Distractor.gif"",""img/Fire_Down_Distractor.gif"",""img/Fire_Down_Distractor.gif"",""img/Fire_Down_Distractor.gif"",""img/Fire_Down_Distractor.gif"",""img/Fire_Down_Distractor.gif"",""img/Fire_Down_Distractor.gif"",""img/Fire_Down_Distractor.gif"",""img/Fire_Down_Distractor.gif"",""img/Fire_Down_Distractor.gif"",""img/Fire_Down_Distractor.gif""]","5","targetUp_distractorsDown"
"","","","","","html-keyboard-response","166","520796","0.0-14.0-0.0-0.76","5fbeef08fae48b16613fbe94","619531dcf66c91622fa1b861","619597cfdbf55536a91ea0f8","null","","null","","","","","main_T1_ITI","","","","",""
"","","","","","visual-search-circle","167","521915","0.0-14.0-0.0-1.76","5fbeef08fae48b16613fbe94","619531dcf66c91622fa1b861","619597cfdbf55536a91ea0f8","104.40000000037253","","s","true","[[284,599],[580,407],[488,66],[136,48],[10,377]]","false","5","main_T2_Trial","s","img/Fire_Down_Target.gif","[""img/Fire_Up_Distractor.gif"",""img/Fire_Up_Distractor.gif"",""img/Fire_Up_Distractor.gif"",""img/Fire_Up_Distractor.gif"",""img/Fire_Up_Distractor.gif"",""img/Fire_Up_Distractor.gif"",""img/Fire_Up_Distractor.gif"",""img/Fire_Up_Distractor.gif"",""img/Fire_Up_Distractor.gif"",""img/Fire_Up_Distractor.gif"",""img/Fire_Up_Distractor.gif"",""img/Fire_Up_Distractor.gif""]","5","targetDown_distractorsUp"
"","","","","","html-keyboard-response","168","521917","0.0-14.0-0.0-0.77","5fbeef08fae48b16613fbe94","619531dcf66c91622fa1b861","619597cfdbf55536a91ea0f8","null","","null","","","","","main_T1_ITI","","","","",""
"","","","","","visual-search-circle","169","523022","0.0-14.0-0.0-1.77","5fbeef08fae48b16613fbe94","619531dcf66c91622fa1b861","619597cfdbf55536a91ea0f8","93","","d","false","[[591,227],[454,42],[227,8],[42,145],[8,372],[145,557],[372,591],[557,454]]","false","8","main_T2_Trial","s","img/Fire_Down_Target.gif","[""img/Fire_Up_Distractor.gif"",""img/Fire_Up_Distractor.gif"",""img/Fire_Up_Distractor.gif"",""img/Fire_Up_Distractor.gif"",""img/Fire_Up_Distractor.gif"",""img/Fire_Up_Distractor.gif"",""img/Fire_Up_Distractor.gif"",""img/Fire_Up_Distractor.gif"",""img/Fire_Up_Distractor.gif"",""img/Fire_Up_Distractor.gif"",""img/Fire_Up_Distractor.gif"",""img/Fire_Up_Distractor.gif""]","8","targetDown_distractorsUp"
"","","","","","html-keyboard-response","170","523023","0.0-14.0-0.0-0.78","5fbeef08fae48b16613fbe94","619531dcf66c91622fa1b861","619597cfdbf55536a91ea0f8","null","","null","","","","","main_T1_ITI","","","","",""
"","","","","","visual-search-circle","171","524117","0.0-14.0-0.0-1.78","5fbeef08fae48b16613fbe94","619531dcf66c91622fa1b861","619597cfdbf55536a91ea0f8","89.20000000018626","","d","false","[[273,1],[28,173],[54,472],[326,598],[571,426],[545,127]]","false","6","main_T2_Trial","s","img/Fire_Up_Target.gif","[""img/Fire_Down_Distractor.gif"",""img/Fire_Down_Distractor.gif"",""img/Fire_Down_Distractor.gif"",""img/Fire_Down_Distractor.gif"",""img/Fire_Down_Distractor.gif"",""img/Fire_Down_Distractor.gif"",""img/Fire_Down_Distractor.gif"",""img/Fire_Down_Distractor.gif"",""img/Fire_Down_Distractor.gif"",""img/Fire_Down_Distractor.gif"",""img/Fire_Down_Distractor.gif"",""img/Fire_Down_Distractor.gif""]","6","targetUp_distractorsDown"
"","","","","","html-keyboard-response","172","524256","0.0-14.0-0.0-0.79","5fbeef08fae48b16613fbe94","619531dcf66c91622fa1b861","619597cfdbf55536a91ea0f8","138.5","Wow! You've completed 80 out of 160 trials! </p> <p>  </p><p> Take a quick break, then press any key when you're ready to continue.","s","","","","","main_T1_ITI","","","","",""
"","","","","","visual-search-circle","173","525971","0.0-14.0-0.0-1.79","5fbeef08fae48b16613fbe94","619531dcf66c91622fa1b861","619597cfdbf55536a91ea0f8","708.7000000001863","","s","false","[[73,103],[0,320],[103,526],[320,599],[526,496],[599,279],[496,73],[279,0]]","true","8","main_T2_Trial","d","img/Fire_Up_Target.gif","[""img/Fire_Down_Distractor.gif"",""img/Fire_Down_Distractor.gif"",""img/Fire_Down_Distractor.gif"",""img/Fire_Down_Distractor.gif"",""img/Fire_Down_Distractor.gif"",""img/Fire_Down_Distractor.gif"",""img/Fire_Down_Distractor.gif"",""img/Fire_Down_Distractor.gif"",""img/Fire_Down_Distractor.gif"",""img/Fire_Down_Distractor.gif"",""img/Fire_Down_Distractor.gif"",""img/Fire_Down_Distractor.gif""]","8","targetUp_distractorsDown"
"","","","","","html-keyboard-response","174","525973","0.0-14.0-0.0-0.80","5fbeef08fae48b16613fbe94","619531dcf66c91622fa1b861","619597cfdbf55536a91ea0f8","null","","null","","","","","main_T1_ITI","","","","",""
"","","","","","visual-search-circle","175","527424","0.0-14.0-0.0-1.80","5fbeef08fae48b16613fbe94","619531dcf66c91622fa1b861","619597cfdbf55536a91ea0f8","446","","d","false","[[440,35],[180,24],[10,221],[58,477],[288,599],[526,496],[594,244]]","false","7","main_T2_Trial","s","img/Fire_Down_Target.gif","[""img/Fire_Up_Distractor.gif"",""img/Fire_Up_Distractor.gif"",""img/Fire_Up_Distractor.gif"",""img/Fire_Up_Distractor.gif"",""img/Fire_Up_Distractor.gif"",""img/Fire_Up_Distractor.gif"",""img/Fire_Up_Distractor.gif"",""img/Fire_Up_Distractor.gif"",""img/Fire_Up_Distractor.gif"",""img/Fire_Up_Distractor.gif"",""img/Fire_Up_Distractor.gif"",""img/Fire_Up_Distractor.gif""]","7","targetDown_distractorsUp"
"","","","","","html-keyboard-response","176","527426","0.0-14.0-0.0-0.81","5fbeef08fae48b16613fbe94","619531dcf66c91622fa1b861","619597cfdbf55536a91ea0f8","null","","null","","","","","main_T1_ITI","","","","",""
"","","","","","visual-search-circle","177","528934","0.0-14.0-0.0-1.81","5fbeef08fae48b16613fbe94","619531dcf66c91622fa1b861","619597cfdbf55536a91ea0f8","500.8999999994412","","s","true","[[326,598],[529,492],[598,273],[492,70],[273,1],[70,107],[1,326],[107,529]]","false","8","main_T2_Trial","s","img/Fire_Down_Target.gif","[""img/Fire_Up_Distractor.gif"",""img/Fire_Up_Distractor.gif"",""img/Fire_Up_Distractor.gif"",""img/Fire_Up_Distractor.gif"",""img/Fire_Up_Distractor.gif"",""img/Fire_Up_Distractor.gif"",""img/Fire_Up_Distractor.gif"",""img/Fire_Up_Distractor.gif"",""img/Fire_Up_Distractor.gif"",""img/Fire_Up_Distractor.gif"",""img/Fire_Up_Distractor.gif"",""img/Fire_Up_Distractor.gif""]","8","targetDown_distractorsUp"
"","","","","","html-keyboard-response","178","528936","0.0-14.0-0.0-0.82","5fbeef08fae48b16613fbe94","619531dcf66c91622fa1b861","619597cfdbf55536a91ea0f8","null","","null","","","","","main_T1_ITI","","","","",""
"","","","","","visual-search-circle","179","530519","0.0-14.0-0.0-1.82","5fbeef08fae48b16613fbe94","619531dcf66c91622fa1b861","619597cfdbf55536a91ea0f8","574.7000000001863","","d","false","[[445,37],[145,42],[0,305],[154,562],[454,557],[599,294]]","false","6","main_T2_Trial","s","img/Fire_Up_Target.gif","[""img/Fire_Down_Distractor.gif"",""img/Fire_Down_Distractor.gif"",""img/Fire_Down_Distractor.gif"",""img/Fire_Down_Distractor.gif"",""img/Fire_Down_Distractor.gif"",""img/Fire_Down_Distractor.gif"",""img/Fire_Down_Distractor.gif"",""img/Fire_Down_Distractor.gif"",""img/Fire_Down_Distractor.gif"",""img/Fire_Down_Distractor.gif"",""img/Fire_Down_Distractor.gif"",""img/Fire_Down_Distractor.gif""]","6","targetUp_distractorsDown"
"","","","","","html-keyboard-response","180","530521","0.0-14.0-0.0-0.83","5fbeef08fae48b16613fbe94","619531dcf66c91622fa1b861","619597cfdbf55536a91ea0f8","null","","null","","","","","main_T1_ITI","","","","",""
"","","","","","visual-search-circle","181","533387","0.0-14.0-0.0-1.83","5fbeef08fae48b16613fbe94","619531dcf66c91622fa1b861","619597cfdbf55536a91ea0f8","1860.0999999996275","","s","false","[[581,197],[352,4],[70,107],[18,402],[247,595],[529,492]]","true","6","main_T2_Trial","d","img/Fire_Down_Target.gif","[""img/Fire_Up_Distractor.gif"",""img/Fire_Up_Distractor.gif"",""img/Fire_Up_Distractor.gif"",""img/Fire_Up_Distractor.gif"",""img/Fire_Up_Distractor.gif"",""img/Fire_Up_Distractor.gif"",""img/Fire_Up_Distractor.gif"",""img/Fire_Up_Distractor.gif"",""img/Fire_Up_Distractor.gif"",""img/Fire_Up_Distractor.gif"",""img/Fire_Up_Distractor.gif"",""img/Fire_Up_Distractor.gif""]","6","targetDown_distractorsUp"
"","","","","","html-keyboard-response","182","533390","0.0-14.0-0.0-0.84","5fbeef08fae48b16613fbe94","619531dcf66c91622fa1b861","619597cfdbf55536a91ea0f8","null","","null","","","","","main_T1_ITI","","","","",""
"","","","","","visual-search-circle","183","535128","0.0-14.0-0.0-1.84","5fbeef08fae48b16613fbe94","619531dcf66c91622fa1b861","619597cfdbf55536a91ea0f8","733.2999999998137","","d","true","[[402,581],[595,352],[492,70],[197,18],[4,247],[107,529]]","true","6","main_T2_Trial","d","img/Fire_Down_Target.gif","[""img/Fire_Up_Distractor.gif"",""img/Fire_Up_Distractor.gif"",""img/Fire_Up_Distractor.gif"",""img/Fire_Up_Distractor.gif"",""img/Fire_Up_Distractor.gif"",""img/Fire_Up_Distractor.gif"",""img/Fire_Up_Distractor.gif"",""img/Fire_Up_Distractor.gif"",""img/Fire_Up_Distractor.gif"",""img/Fire_Up_Distractor.gif"",""img/Fire_Up_Distractor.gif"",""img/Fire_Up_Distractor.gif""]","6","targetDown_distractorsUp"
"","","","","","html-keyboard-response","184","535130","0.0-14.0-0.0-0.85","5fbeef08fae48b16613fbe94","619531dcf66c91622fa1b861","619597cfdbf55536a91ea0f8","null","","null","","","","","main_T1_ITI","","","","",""
"","","","","","visual-search-circle","185","543387","0.0-14.0-0.0-1.85","5fbeef08fae48b16613fbe94","619531dcf66c91622fa1b861","619597cfdbf55536a91ea0f8","7246","","s","true","[[402,18],[173,28],[18,197],[28,426],[197,581],[426,571],[581,402],[571,173]]","false","8","main_T2_Trial","s","img/Fire_Up_Target.gif","[""img/Fire_Down_Distractor.gif"",""img/Fire_Down_Distractor.gif"",""img/Fire_Down_Distractor.gif"",""img/Fire_Down_Distractor.gif"",""img/Fire_Down_Distractor.gif"",""img/Fire_Down_Distractor.gif"",""img/Fire_Down_Distractor.gif"",""img/Fire_Down_Distractor.gif"",""img/Fire_Down_Distractor.gif"",""img/Fire_Down_Distractor.gif"",""img/Fire_Down_Distractor.gif"",""img/Fire_Down_Distractor.gif""]","8","targetUp_distractorsDown"
"","","","","","html-keyboard-response","186","543390","0.0-14.0-0.0-0.86","5fbeef08fae48b16613fbe94","619531dcf66c91622fa1b861","619597cfdbf55536a91ea0f8","null","","null","","","","","main_T1_ITI","","","","",""
"","","","","","visual-search-circle","187","545810","0.0-14.0-0.0-1.86","5fbeef08fae48b16613fbe94","619531dcf66c91622fa1b861","619597cfdbf55536a91ea0f8","1415.1000000005588","","s","true","[[362,593],[585,392],[522,99],[237,6],[14,207],[77,500]]","false","6","main_T2_Trial","s","img/Fire_Down_Target.gif","[""img/Fire_Up_Distractor.gif"",""img/Fire_Up_Distractor.gif"",""img/Fire_Up_Distractor.gif"",""img/Fire_Up_Distractor.gif"",""img/Fire_Up_Distractor.gif"",""img/Fire_Up_Distractor.gif"",""img/Fire_Up_Distractor.gif"",""img/Fire_Up_Distractor.gif"",""img/Fire_Up_Distractor.gif"",""img/Fire_Up_Distractor.gif"",""img/Fire_Up_Distractor.gif"",""img/Fire_Up_Distractor.gif""]","6","targetDown_distractorsUp"
"","","","","","html-keyboard-response","188","545813","0.0-14.0-0.0-0.87","5fbeef08fae48b16613fbe94","619531dcf66c91622fa1b861","619597cfdbf55536a91ea0f8","null","","null","","","","","main_T1_ITI","","","","",""
"","","","","","visual-search-circle","189","548013","0.0-14.0-0.0-1.87","5fbeef08fae48b16613fbe94","619531dcf66c91622fa1b861","619597cfdbf55536a91ea0f8","1193.0999999996275","","d","false","[[431,30],[84,91],[35,440],[352,595],[597,341]]","false","5","main_T2_Trial","s","img/Fire_Down_Target.gif","[""img/Fire_Up_Distractor.gif"",""img/Fire_Up_Distractor.gif"",""img/Fire_Up_Distractor.gif"",""img/Fire_Up_Distractor.gif"",""img/Fire_Up_Distractor.gif"",""img/Fire_Up_Distractor.gif"",""img/Fire_Up_Distractor.gif"",""img/Fire_Up_Distractor.gif"",""img/Fire_Up_Distractor.gif"",""img/Fire_Up_Distractor.gif"",""img/Fire_Up_Distractor.gif"",""img/Fire_Up_Distractor.gif""]","5","targetDown_distractorsUp"
"","","","","","html-keyboard-response","190","548015","0.0-14.0-0.0-0.88","5fbeef08fae48b16613fbe94","619531dcf66c91622fa1b861","619597cfdbf55536a91ea0f8","null","","null","","","","","main_T1_ITI","","","","",""
"","","","","","visual-search-circle","191","549562","0.0-14.0-0.0-1.88","5fbeef08fae48b16613fbe94","619531dcf66c91622fa1b861","619597cfdbf55536a91ea0f8","532.7999999998137","","s","false","[[315,599],[522,500],[599,284],[500,77],[284,0],[77,99],[0,315],[99,522]]","true","8","main_T2_Trial","d","img/Fire_Down_Target.gif","[""img/Fire_Up_Distractor.gif"",""img/Fire_Up_Distractor.gif"",""img/Fire_Up_Distractor.gif"",""img/Fire_Up_Distractor.gif"",""img/Fire_Up_Distractor.gif"",""img/Fire_Up_Distractor.gif"",""img/Fire_Up_Distractor.gif"",""img/Fire_Up_Distractor.gif"",""img/Fire_Up_Distractor.gif"",""img/Fire_Up_Distractor.gif"",""img/Fire_Up_Distractor.gif"",""img/Fire_Up_Distractor.gif""]","8","targetDown_distractorsUp"
"","","","","","html-keyboard-response","192","549563","0.0-14.0-0.0-0.89","5fbeef08fae48b16613fbe94","619531dcf66c91622fa1b861","619597cfdbf55536a91ea0f8","null","","null","","","","","main_T1_ITI","","","","",""
"","","","","","visual-search-circle","193","551643","0.0-14.0-0.0-1.89","5fbeef08fae48b16613fbe94","619531dcf66c91622fa1b861","619597cfdbf55536a91ea0f8","1069.300000000745","","d","false","[[141,554],[554,458],[458,45],[45,141]]","false","4","main_T2_Trial","s","img/Fire_Up_Target.gif","[""img/Fire_Down_Distractor.gif"",""img/Fire_Down_Distractor.gif"",""img/Fire_Down_Distractor.gif"",""img/Fire_Down_Distractor.gif"",""img/Fire_Down_Distractor.gif"",""img/Fire_Down_Distractor.gif"",""img/Fire_Down_Distractor.gif"",""img/Fire_Down_Distractor.gif"",""img/Fire_Down_Distractor.gif"",""img/Fire_Down_Distractor.gif"",""img/Fire_Down_Distractor.gif"",""img/Fire_Down_Distractor.gif""]","4","targetUp_distractorsDown"
"","","","","","html-keyboard-response","194","551646","0.0-14.0-0.0-0.90","5fbeef08fae48b16613fbe94","619531dcf66c91622fa1b861","619597cfdbf55536a91ea0f8","null","","null","","","","","main_T1_ITI","","","","",""
"","","","","","visual-search-circle","195","553775","0.0-14.0-0.0-1.90","5fbeef08fae48b16613fbe94","619531dcf66c91622fa1b861","619597cfdbf55536a91ea0f8","1121","","s","false","[[16,202],[30,431],[202,583],[431,569],[583,397],[569,168],[397,16],[168,30]]","true","8","main_T2_Trial","d","img/Fire_Down_Target.gif","[""img/Fire_Up_Distractor.gif"",""img/Fire_Up_Distractor.gif"",""img/Fire_Up_Distractor.gif"",""img/Fire_Up_Distractor.gif"",""img/Fire_Up_Distractor.gif"",""img/Fire_Up_Distractor.gif"",""img/Fire_Up_Distractor.gif"",""img/Fire_Up_Distractor.gif"",""img/Fire_Up_Distractor.gif"",""img/Fire_Up_Distractor.gif"",""img/Fire_Up_Distractor.gif"",""img/Fire_Up_Distractor.gif""]","8","targetDown_distractorsUp"
"","","","","","html-keyboard-response","196","553776","0.0-14.0-0.0-0.91","5fbeef08fae48b16613fbe94","619531dcf66c91622fa1b861","619597cfdbf55536a91ea0f8","null","","null","","","","","main_T1_ITI","","","","",""
"","","","","","visual-search-circle","197","556190","0.0-14.0-0.0-1.91","5fbeef08fae48b16613fbe94","619531dcf66c91622fa1b861","619597cfdbf55536a91ea0f8","1411","","d","true","[[40,150],[20,409],[211,586],[468,547],[599,322],[504,80],[255,3]]","true","7","main_T2_Trial","d","img/Fire_Down_Target.gif","[""img/Fire_Up_Distractor.gif"",""img/Fire_Up_Distractor.gif"",""img/Fire_Up_Distractor.gif"",""img/Fire_Up_Distractor.gif"",""img/Fire_Up_Distractor.gif"",""img/Fire_Up_Distractor.gif"",""img/Fire_Up_Distractor.gif"",""img/Fire_Up_Distractor.gif"",""img/Fire_Up_Distractor.gif"",""img/Fire_Up_Distractor.gif"",""img/Fire_Up_Distractor.gif"",""img/Fire_Up_Distractor.gif""]","7","targetDown_distractorsUp"
"","","","","","html-keyboard-response","198","556192","0.0-14.0-0.0-0.92","5fbeef08fae48b16613fbe94","619531dcf66c91622fa1b861","619597cfdbf55536a91ea0f8","null","","null","","","","","main_T1_ITI","","","","",""
"","","","","","visual-search-circle","199","558147","0.0-14.0-0.0-1.92","5fbeef08fae48b16613fbe94","619531dcf66c91622fa1b861","619597cfdbf55536a91ea0f8","950.5999999996275","","s","true","[[111,533],[463,551],[589,222],[315,0],[19,192]]","false","5","main_T2_Trial","s","img/Fire_Down_Target.gif","[""img/Fire_Up_Distractor.gif"",""img/Fire_Up_Distractor.gif"",""img/Fire_Up_Distractor.gif"",""img/Fire_Up_Distractor.gif"",""img/Fire_Up_Distractor.gif"",""img/Fire_Up_Distractor.gif"",""img/Fire_Up_Distractor.gif"",""img/Fire_Up_Distractor.gif"",""img/Fire_Up_Distractor.gif"",""img/Fire_Up_Distractor.gif"",""img/Fire_Up_Distractor.gif"",""img/Fire_Up_Distractor.gif""]","5","targetDown_distractorsUp"
"","","","","","html-keyboard-response","200","558148","0.0-14.0-0.0-0.93","5fbeef08fae48b16613fbe94","619531dcf66c91622fa1b861","619597cfdbf55536a91ea0f8","null","","null","","","","","main_T1_ITI","","","","",""
"","","","","","visual-search-circle","201","560083","0.0-14.0-0.0-1.93","5fbeef08fae48b16613fbe94","619531dcf66c91622fa1b861","619597cfdbf55536a91ea0f8","933","","d","false","[[559,150],[150,40],[40,450],[450,559]]","false","4","main_T2_Trial","s","img/Fire_Down_Target.gif","[""img/Fire_Up_Distractor.gif"",""img/Fire_Up_Distractor.gif"",""img/Fire_Up_Distractor.gif"",""img/Fire_Up_Distractor.gif"",""img/Fire_Up_Distractor.gif"",""img/Fire_Up_Distractor.gif"",""img/Fire_Up_Distractor.gif"",""img/Fire_Up_Distractor.gif"",""img/Fire_Up_Distractor.gif"",""img/Fire_Up_Distractor.gif"",""img/Fire_Up_Distractor.gif"",""img/Fire_Up_Distractor.gif""]","4","targetDown_distractorsUp"
"","","","","","html-keyboard-response","202","560085","0.0-14.0-0.0-0.94","5fbeef08fae48b16613fbe94","619531dcf66c91622fa1b861","619597cfdbf55536a91ea0f8","null","","null","","","","","main_T1_ITI","","","","",""
"","","","","","visual-search-circle","203","561509","0.0-14.0-0.0-1.94","5fbeef08fae48b16613fbe94","619531dcf66c91622fa1b861","619597cfdbf55536a91ea0f8","418.3999999994412","","s","false","[[512,87],[266,1],[45,140],[16,399],[200,583],[459,554],[598,333]]","true","7","main_T2_Trial","d","img/Fire_Down_Target.gif","[""img/Fire_Up_Distractor.gif"",""img/Fire_Up_Distractor.gif"",""img/Fire_Up_Distractor.gif"",""img/Fire_Up_Distractor.gif"",""img/Fire_Up_Distractor.gif"",""img/Fire_Up_Distractor.gif"",""img/Fire_Up_Distractor.gif"",""img/Fire_Up_Distractor.gif"",""img/Fire_Up_Distractor.gif"",""img/Fire_Up_Distractor.gif"",""img/Fire_Up_Distractor.gif"",""img/Fire_Up_Distractor.gif""]","7","targetDown_distractorsUp"
"","","","","","html-keyboard-response","204","561511","0.0-14.0-0.0-0.95","5fbeef08fae48b16613fbe94","619531dcf66c91622fa1b861","619597cfdbf55536a91ea0f8","null","","null","","","","","main_T1_ITI","","","","",""
"","","","","","visual-search-circle","205","562851","0.0-14.0-0.0-1.95","5fbeef08fae48b16613fbe94","619531dcf66c91622fa1b861","619597cfdbf55536a91ea0f8","322.29999999981374","","d","true","[[440,564],[595,247],[341,2],[30,168],[91,515]]","true","5","main_T2_Trial","d","img/Fire_Down_Target.gif","[""img/Fire_Up_Distractor.gif"",""img/Fire_Up_Distractor.gif"",""img/Fire_Up_Distractor.gif"",""img/Fire_Up_Distractor.gif"",""img/Fire_Up_Distractor.gif"",""img/Fire_Up_Distractor.gif"",""img/Fire_Up_Distractor.gif"",""img/Fire_Up_Distractor.gif"",""img/Fire_Up_Distractor.gif"",""img/Fire_Up_Distractor.gif"",""img/Fire_Up_Distractor.gif"",""img/Fire_Up_Distractor.gif""]","5","targetDown_distractorsUp"
"","","","","","html-keyboard-response","206","562854","0.0-14.0-0.0-0.96","5fbeef08fae48b16613fbe94","619531dcf66c91622fa1b861","619597cfdbf55536a91ea0f8","null","","null","","","","","main_T1_ITI","","","","",""
"","","","","","visual-search-circle","207","564234","0.0-14.0-0.0-1.96","5fbeef08fae48b16613fbe94","619531dcf66c91622fa1b861","619597cfdbf55536a91ea0f8","370.29999999981374","","s","true","[[247,4],[18,197],[70,492],[352,595],[581,402],[529,107]]","false","6","main_T2_Trial","s","img/Fire_Down_Target.gif","[""img/Fire_Up_Distractor.gif"",""img/Fire_Up_Distractor.gif"",""img/Fire_Up_Distractor.gif"",""img/Fire_Up_Distractor.gif"",""img/Fire_Up_Distractor.gif"",""img/Fire_Up_Distractor.gif"",""img/Fire_Up_Distractor.gif"",""img/Fire_Up_Distractor.gif"",""img/Fire_Up_Distractor.gif"",""img/Fire_Up_Distractor.gif"",""img/Fire_Up_Distractor.gif"",""img/Fire_Up_Distractor.gif""]","6","targetDown_distractorsUp"
"","","","","","html-keyboard-response","208","564236","0.0-14.0-0.0-0.97","5fbeef08fae48b16613fbe94","619531dcf66c91622fa1b861","619597cfdbf55536a91ea0f8","null","","null","","","","","main_T1_ITI","","","","",""
"","","","","","visual-search-circle","209","565818","0.0-14.0-0.0-1.97","5fbeef08fae48b16613fbe94","619531dcf66c91622fa1b861","619597cfdbf55536a91ea0f8","572.7000000001863","","d","false","[[571,173],[370,8],[115,63],[0,296],[110,532],[363,593],[568,433]]","false","7","main_T2_Trial","s","img/Fire_Up_Target.gif","[""img/Fire_Down_Distractor.gif"",""img/Fire_Down_Distractor.gif"",""img/Fire_Down_Distractor.gif"",""img/Fire_Down_Distractor.gif"",""img/Fire_Down_Distractor.gif"",""img/Fire_Down_Distractor.gif"",""img/Fire_Down_Distractor.gif"",""img/Fire_Down_Distractor.gif"",""img/Fire_Down_Distractor.gif"",""img/Fire_Down_Distractor.gif"",""img/Fire_Down_Distractor.gif"",""img/Fire_Down_Distractor.gif""]","7","targetUp_distractorsDown"
"","","","","","html-keyboard-response","210","565820","0.0-14.0-0.0-0.98","5fbeef08fae48b16613fbe94","619531dcf66c91622fa1b861","619597cfdbf55536a91ea0f8","null","","null","","","","","main_T1_ITI","","","","",""
"","","","","","visual-search-circle","211","567520","0.0-14.0-0.0-1.98","5fbeef08fae48b16613fbe94","619531dcf66c91622fa1b861","619597cfdbf55536a91ea0f8","692.7000000001863","","d","true","[[569,431],[583,202],[431,30],[202,16],[30,168],[16,397],[168,569],[397,583]]","true","8","main_T2_Trial","d","img/Fire_Down_Target.gif","[""img/Fire_Up_Distractor.gif"",""img/Fire_Up_Distractor.gif"",""img/Fire_Up_Distractor.gif"",""img/Fire_Up_Distractor.gif"",""img/Fire_Up_Distractor.gif"",""img/Fire_Up_Distractor.gif"",""img/Fire_Up_Distractor.gif"",""img/Fire_Up_Distractor.gif"",""img/Fire_Up_Distractor.gif"",""img/Fire_Up_Distractor.gif"",""img/Fire_Up_Distractor.gif"",""img/Fire_Up_Distractor.gif""]","8","targetDown_distractorsUp"
"","","","","","html-keyboard-response","212","573504","0.0-14.0-0.0-0.99","5fbeef08fae48b16613fbe94","619531dcf66c91622fa1b861","619597cfdbf55536a91ea0f8","5983.5999999996275","Wow! You've completed 100 out of 160 trials! </p> <p>  </p><p> Take a quick break, then press any key when you're ready to continue."," ","","","","","main_T1_ITI","","","","",""
"","","","","","visual-search-circle","213","574861","0.0-14.0-0.0-1.99","5fbeef08fae48b16613fbe94","619531dcf66c91622fa1b861","619597cfdbf55536a91ea0f8","350.90000000037253","","d","false","[[25,422],[224,590],[479,540],[599,308],[493,71],[242,5],[33,161]]","false","7","main_T2_Trial","s","img/Fire_Up_Target.gif","[""img/Fire_Down_Distractor.gif"",""img/Fire_Down_Distractor.gif"",""img/Fire_Down_Distractor.gif"",""img/Fire_Down_Distractor.gif"",""img/Fire_Down_Distractor.gif"",""img/Fire_Down_Distractor.gif"",""img/Fire_Down_Distractor.gif"",""img/Fire_Down_Distractor.gif"",""img/Fire_Down_Distractor.gif"",""img/Fire_Down_Distractor.gif"",""img/Fire_Down_Distractor.gif"",""img/Fire_Down_Distractor.gif""]","7","targetUp_distractorsDown"
"","","","","","html-keyboard-response","214","574864","0.0-14.0-0.0-0.100","5fbeef08fae48b16613fbe94","619531dcf66c91622fa1b861","619597cfdbf55536a91ea0f8","null","","null","","","","","main_T1_ITI","","","","",""
"","","","","","visual-search-circle","215","576212","0.0-14.0-0.0-1.100","5fbeef08fae48b16613fbe94","619531dcf66c91622fa1b861","619597cfdbf55536a91ea0f8","343.79999999981374","","s","false","[[232,7],[29,170],[30,430],[233,592],[487,534],[599,299],[486,64]]","true","7","main_T2_Trial","d","img/Fire_Up_Target.gif","[""img/Fire_Down_Distractor.gif"",""img/Fire_Down_Distractor.gif"",""img/Fire_Down_Distractor.gif"",""img/Fire_Down_Distractor.gif"",""img/Fire_Down_Distractor.gif"",""img/Fire_Down_Distractor.gif"",""img/Fire_Down_Distractor.gif"",""img/Fire_Down_Distractor.gif"",""img/Fire_Down_Distractor.gif"",""img/Fire_Down_Distractor.gif"",""img/Fire_Down_Distractor.gif"",""img/Fire_Down_Distractor.gif""]","7","targetUp_distractorsDown"
"","","","","","html-keyboard-response","216","576215","0.0-14.0-0.0-0.101","5fbeef08fae48b16613fbe94","619531dcf66c91622fa1b861","619597cfdbf55536a91ea0f8","null","","null","","","","","main_T1_ITI","","","","",""
