"success","timeout","failed_images","failed_audio","failed_video","trial_type","trial_index","time_elapsed","internal_node_id","subject_id","study_id","session_id","rt","stimulus","response","correct","locations","target_present","set_size","task","correct_response","target","foilCM","setSizeCM","searchCondition"
"true","false","[]","[]","[]","preload","0","121045","0.0-0.0","5fd60b369aa1a548ed311af6","619531dcf66c91622fa1b861","619595fe4c3aa422809beede","","","","","","","","","","","","",""
"true","","","","","fullscreen","1","163089","0.0-1.0","5fd60b369aa1a548ed311af6","619531dcf66c91622fa1b861","619595fe4c3aa422809beede","","","","","","","","","","","","",""
"","","","","","html-keyboard-response","2","170620","0.0-2.0","5fd60b369aa1a548ed311af6","619531dcf66c91622fa1b861","619595fe4c3aa422809beede","7527.0999999940395","What a beautiful Thursday to do some awesome science! </p> <p>  </p><p> </p>
    By completing this survey or questionnaire, you are consenting to be in this research study. </p>
    Your participation is voluntary and you can stop at any time.
    <p> [Press any key to continue.] </p>
    
    "," ","","","","","","","","","",""
"","","","","","video-keyboard-response","3","208740","0.0-3.0","5fd60b369aa1a548ed311af6","619531dcf66c91622fa1b861","619595fe4c3aa422809beede","38080.20000001788","[""video/TaskInstructions.mp4""]"," ","","","","","","","","","",""
"","","","","","html-keyboard-response","4","215410","0.0-4.0","5fd60b369aa1a548ed311af6","619531dcf66c91622fa1b861","619595fe4c3aa422809beede","6668.4000000059605","
    <p>First, we're going to do a few practice trials to make sure you understand the task. You will recieve feedback on each trial. </p>
    <p>[Press any key to begin the familiarization phase.]</p>
    "," ","","","","","","","","","",""
"","","","","","visual-search-circle","5","220539","0.0-5.0-0.0","5fd60b369aa1a548ed311af6","619531dcf66c91622fa1b861","619595fe4c3aa422809beede","4046.800000011921","","d","true","[[341,597],[597,258],[258,2],[2,341]]","true","4","training","d","","","",""
"","","","","","html-keyboard-response","6","223949","0.0-6.0","5fd60b369aa1a548ed311af6","619531dcf66c91622fa1b861","619595fe4c3aa422809beede","3408.7999999821186"," <div style='float: center; '><img src='img/feedbackRight.png'></img> </div> "," ","","","","","","","","","",""
"","","","","","visual-search-circle","7","226494","0.0-7.0-0.0","5fd60b369aa1a548ed311af6","619531dcf66c91622fa1b861","619595fe4c3aa422809beede","1532.2000000178814","","s","true","[[11,382],[382,588],[588,217],[217,11]]","false","4","training","s","","","",""
"","","","","","html-keyboard-response","8","229215","0.0-8.0","5fd60b369aa1a548ed311af6","619531dcf66c91622fa1b861","619595fe4c3aa422809beede","2719"," <div style='float: center; '><img src='img/feedbackRight.png'></img> </div> "," ","","","","","","","","","",""
"","","","","","visual-search-circle","9","232115","0.0-9.0-0.0","5fd60b369aa1a548ed311af6","619531dcf66c91622fa1b861","619595fe4c3aa422809beede","1890.0999999940395","","s","true","[[562,445],[557,145],[294,0],[37,154],[42,454],[305,599]]","false","6","training","s","","","",""
"","","","","","html-keyboard-response","10","234271","0.0-10.0","5fd60b369aa1a548ed311af6","619531dcf66c91622fa1b861","619595fe4c3aa422809beede","2154.2000000178814"," <div style='float: center; '><img src='img/feedbackRight.png'></img> </div> "," ","","","","","","","","","",""
"","","","","","visual-search-circle","11","236736","0.0-11.0-0.0","5fd60b369aa1a548ed311af6","619531dcf66c91622fa1b861","619595fe4c3aa422809beede","1443.800000011921","","d","true","[[422,25],[192,19],[25,177],[19,407],[177,574],[407,580],[574,422],[580,192]]","true","8","training","d","","","",""
"","","","","","html-keyboard-response","12","237952","0.0-12.0","5fd60b369aa1a548ed311af6","619531dcf66c91622fa1b861","619595fe4c3aa422809beede","1214.699999988079"," <div style='float: center; '><img src='img/feedbackRight.png'></img> </div> "," ","","","","","","","","","",""
"","","","","","video-keyboard-response","13","243252","0.0-13.0","5fd60b369aa1a548ed311af6","619531dcf66c91622fa1b861","619595fe4c3aa422809beede","5297.4000000059605","[""video/endTraining.mp4""]"," ","","","","","","","","","",""
"","","","","","html-keyboard-response","14","243254","0.0-14.0-0.0-0.0","5fd60b369aa1a548ed311af6","619531dcf66c91622fa1b861","619595fe4c3aa422809beede","null","","null","","","","","main_T1_ITI","","","","",""
"","","","","","visual-search-circle","15","246992","0.0-14.0-0.0-1.0","5fd60b369aa1a548ed311af6","619531dcf66c91622fa1b861","619595fe4c3aa422809beede","2725.0999999940395","","s","false","[[0,305],[212,586],[545,472],[539,119],[202,16]]","true","5","main_T2_Trial","d","img/Fire_Up_Target.gif","[""img/Fire_Down_Distractor.gif"",""img/Fire_Down_Distractor.gif"",""img/Fire_Down_Distractor.gif"",""img/Fire_Down_Distractor.gif"",""img/Fire_Down_Distractor.gif"",""img/Fire_Down_Distractor.gif"",""img/Fire_Down_Distractor.gif"",""img/Fire_Down_Distractor.gif"",""img/Fire_Down_Distractor.gif"",""img/Fire_Down_Distractor.gif"",""img/Fire_Down_Distractor.gif"",""img/Fire_Down_Distractor.gif""]","5","targetUp_distractorsDown"
"","","","","","html-keyboard-response","16","247129","0.0-14.0-0.0-0.1","5fd60b369aa1a548ed311af6","619531dcf66c91622fa1b861","619595fe4c3aa422809beede","null","","null","","","","","main_T1_ITI","","","","",""
"","","","","","visual-search-circle","17","249072","0.0-14.0-0.0-1.1","5fd60b369aa1a548ed311af6","619531dcf66c91622fa1b861","619595fe4c3aa422809beede","925.2999999821186","","d","true","[[0,289],[104,527],[356,594],[565,439],[574,179],[376,10],[121,59]]","true","7","main_T2_Trial","d","img/Fire_Down_Target.gif","[""img/Fire_Up_Distractor.gif"",""img/Fire_Up_Distractor.gif"",""img/Fire_Up_Distractor.gif"",""img/Fire_Up_Distractor.gif"",""img/Fire_Up_Distractor.gif"",""img/Fire_Up_Distractor.gif"",""img/Fire_Up_Distractor.gif"",""img/Fire_Up_Distractor.gif"",""img/Fire_Up_Distractor.gif"",""img/Fire_Up_Distractor.gif"",""img/Fire_Up_Distractor.gif"",""img/Fire_Up_Distractor.gif""]","7","targetDown_distractorsUp"
"","","","","","html-keyboard-response","18","249100","0.0-14.0-0.0-0.2","5fd60b369aa1a548ed311af6","619531dcf66c91622fa1b861","619595fe4c3aa422809beede","null","","null","","","","","main_T1_ITI","","","","",""
"","","","","","visual-search-circle","19","251281","0.0-14.0-0.0-1.2","5fd60b369aa1a548ed311af6","619531dcf66c91622fa1b861","619595fe4c3aa422809beede","1162.5999999940395","","d","true","[[567,436],[512,87],[163,32],[3,346],[253,596]]","true","5","main_T2_Trial","d","img/Fire_Down_Target.gif","[""img/Fire_Up_Distractor.gif"",""img/Fire_Up_Distractor.gif"",""img/Fire_Up_Distractor.gif"",""img/Fire_Up_Distractor.gif"",""img/Fire_Up_Distractor.gif"",""img/Fire_Up_Distractor.gif"",""img/Fire_Up_Distractor.gif"",""img/Fire_Up_Distractor.gif"",""img/Fire_Up_Distractor.gif"",""img/Fire_Up_Distractor.gif"",""img/Fire_Up_Distractor.gif"",""img/Fire_Up_Distractor.gif""]","5","targetDown_distractorsUp"
"","","","","","html-keyboard-response","20","251303","0.0-14.0-0.0-0.3","5fd60b369aa1a548ed311af6","619531dcf66c91622fa1b861","619595fe4c3aa422809beede","null","","null","","","","","main_T1_ITI","","","","",""
"","","","","","visual-search-circle","21","253893","0.0-14.0-0.0-1.3","5fd60b369aa1a548ed311af6","619531dcf66c91622fa1b861","619595fe4c3aa422809beede","1565.199999988079","","s","true","[[187,21],[2,258],[115,536],[412,578],[597,341],[484,63]]","false","6","main_T2_Trial","s","img/Fire_Up_Target.gif","[""img/Fire_Down_Distractor.gif"",""img/Fire_Down_Distractor.gif"",""img/Fire_Down_Distractor.gif"",""img/Fire_Down_Distractor.gif"",""img/Fire_Down_Distractor.gif"",""img/Fire_Down_Distractor.gif"",""img/Fire_Down_Distractor.gif"",""img/Fire_Down_Distractor.gif"",""img/Fire_Down_Distractor.gif"",""img/Fire_Down_Distractor.gif"",""img/Fire_Down_Distractor.gif"",""img/Fire_Down_Distractor.gif""]","6","targetUp_distractorsDown"
"","","","","","html-keyboard-response","22","253895","0.0-14.0-0.0-0.4","5fd60b369aa1a548ed311af6","619531dcf66c91622fa1b861","619595fe4c3aa422809beede","null","","null","","","","","main_T1_ITI","","","","",""
"","","","","","visual-search-circle","23","256086","0.0-14.0-0.0-1.4","5fd60b369aa1a548ed311af6","619531dcf66c91622fa1b861","619595fe4c3aa422809beede","1183","","s","true","[[40,450],[255,596],[504,519],[599,277],[468,52],[211,13],[20,190]]","false","7","main_T2_Trial","s","img/Fire_Up_Target.gif","[""img/Fire_Down_Distractor.gif"",""img/Fire_Down_Distractor.gif"",""img/Fire_Down_Distractor.gif"",""img/Fire_Down_Distractor.gif"",""img/Fire_Down_Distractor.gif"",""img/Fire_Down_Distractor.gif"",""img/Fire_Down_Distractor.gif"",""img/Fire_Down_Distractor.gif"",""img/Fire_Down_Distractor.gif"",""img/Fire_Down_Distractor.gif"",""img/Fire_Down_Distractor.gif"",""img/Fire_Down_Distractor.gif""]","7","targetUp_distractorsDown"
"","","","","","html-keyboard-response","24","256098","0.0-14.0-0.0-0.5","5fd60b369aa1a548ed311af6","619531dcf66c91622fa1b861","619595fe4c3aa422809beede","null","","null","","","","","main_T1_ITI","","","","",""
"","","","","","visual-search-circle","25","259541","0.0-14.0-0.0-1.5","5fd60b369aa1a548ed311af6","619531dcf66c91622fa1b861","619595fe4c3aa422809beede","2428.5","","s","false","[[0,284],[284,599],[599,315],[315,0]]","true","4","main_T2_Trial","d","img/Fire_Down_Target.gif","[""img/Fire_Up_Distractor.gif"",""img/Fire_Up_Distractor.gif"",""img/Fire_Up_Distractor.gif"",""img/Fire_Up_Distractor.gif"",""img/Fire_Up_Distractor.gif"",""img/Fire_Up_Distractor.gif"",""img/Fire_Up_Distractor.gif"",""img/Fire_Up_Distractor.gif"",""img/Fire_Up_Distractor.gif"",""img/Fire_Up_Distractor.gif"",""img/Fire_Up_Distractor.gif"",""img/Fire_Up_Distractor.gif""]","4","targetDown_distractorsUp"
"","","","","","html-keyboard-response","26","259559","0.0-14.0-0.0-0.6","5fd60b369aa1a548ed311af6","619531dcf66c91622fa1b861","619595fe4c3aa422809beede","null","","null","","","","","main_T1_ITI","","","","",""
"","","","","","visual-search-circle","27","261960","0.0-14.0-0.0-1.6","5fd60b369aa1a548ed311af6","619531dcf66c91622fa1b861","619595fe4c3aa422809beede","1389.5999999940395","","d","true","[[326,598],[571,426],[545,127],[273,1],[28,173],[54,472]]","true","6","main_T2_Trial","d","img/Fire_Up_Target.gif","[""img/Fire_Down_Distractor.gif"",""img/Fire_Down_Distractor.gif"",""img/Fire_Down_Distractor.gif"",""img/Fire_Down_Distractor.gif"",""img/Fire_Down_Distractor.gif"",""img/Fire_Down_Distractor.gif"",""img/Fire_Down_Distractor.gif"",""img/Fire_Down_Distractor.gif"",""img/Fire_Down_Distractor.gif"",""img/Fire_Down_Distractor.gif"",""img/Fire_Down_Distractor.gif"",""img/Fire_Down_Distractor.gif""]","6","targetUp_distractorsDown"
"","","","","","html-keyboard-response","28","261965","0.0-14.0-0.0-0.7","5fd60b369aa1a548ed311af6","619531dcf66c91622fa1b861","619595fe4c3aa422809beede","null","","null","","","","","main_T1_ITI","","","","",""
"","","","","","visual-search-circle","29","264664","0.0-14.0-0.0-1.7","5fd60b369aa1a548ed311af6","619531dcf66c91622fa1b861","619595fe4c3aa422809beede","1674.9000000059605","","s","true","[[484,536],[597,336],[536,115],[336,2],[115,63],[2,263],[63,484],[263,597]]","false","8","main_T2_Trial","s","img/Fire_Down_Target.gif","[""img/Fire_Up_Distractor.gif"",""img/Fire_Up_Distractor.gif"",""img/Fire_Up_Distractor.gif"",""img/Fire_Up_Distractor.gif"",""img/Fire_Up_Distractor.gif"",""img/Fire_Up_Distractor.gif"",""img/Fire_Up_Distractor.gif"",""img/Fire_Up_Distractor.gif"",""img/Fire_Up_Distractor.gif"",""img/Fire_Up_Distractor.gif"",""img/Fire_Up_Distractor.gif"",""img/Fire_Up_Distractor.gif""]","8","targetDown_distractorsUp"
"","","","","","html-keyboard-response","30","264691","0.0-14.0-0.0-0.8","5fd60b369aa1a548ed311af6","619531dcf66c91622fa1b861","619595fe4c3aa422809beede","null","","null","","","","","main_T1_ITI","","","","",""
"","","","","","visual-search-circle","31","266873","0.0-14.0-0.0-1.8","5fd60b369aa1a548ed311af6","619531dcf66c91622fa1b861","619595fe4c3aa422809beede","1168.3999999761581","","s","true","[[372,591],[557,454],[591,227],[454,42],[227,8],[42,145],[8,372],[145,557]]","false","8","main_T2_Trial","s","img/Fire_Up_Target.gif","[""img/Fire_Down_Distractor.gif"",""img/Fire_Down_Distractor.gif"",""img/Fire_Down_Distractor.gif"",""img/Fire_Down_Distractor.gif"",""img/Fire_Down_Distractor.gif"",""img/Fire_Down_Distractor.gif"",""img/Fire_Down_Distractor.gif"",""img/Fire_Down_Distractor.gif"",""img/Fire_Down_Distractor.gif"",""img/Fire_Down_Distractor.gif"",""img/Fire_Down_Distractor.gif"",""img/Fire_Down_Distractor.gif""]","8","targetUp_distractorsDown"
"","","","","","html-keyboard-response","32","266876","0.0-14.0-0.0-0.9","5fd60b369aa1a548ed311af6","619531dcf66c91622fa1b861","619595fe4c3aa422809beede","null","","null","","","","","main_T1_ITI","","","","",""
"","","","","","visual-search-circle","33","269329","0.0-14.0-0.0-1.9","5fd60b369aa1a548ed311af6","619531dcf66c91622fa1b861","619595fe4c3aa422809beede","1441.300000011921","","s","true","[[392,585],[580,405],[557,146],[340,2],[92,83],[1,326],[134,550]]","false","7","main_T2_Trial","s","img/Fire_Up_Target.gif","[""img/Fire_Down_Distractor.gif"",""img/Fire_Down_Distractor.gif"",""img/Fire_Down_Distractor.gif"",""img/Fire_Down_Distractor.gif"",""img/Fire_Down_Distractor.gif"",""img/Fire_Down_Distractor.gif"",""img/Fire_Down_Distractor.gif"",""img/Fire_Down_Distractor.gif"",""img/Fire_Down_Distractor.gif"",""img/Fire_Down_Distractor.gif"",""img/Fire_Down_Distractor.gif"",""img/Fire_Down_Distractor.gif""]","7","targetUp_distractorsDown"
"","","","","","html-keyboard-response","34","269337","0.0-14.0-0.0-0.10","5fd60b369aa1a548ed311af6","619531dcf66c91622fa1b861","619595fe4c3aa422809beede","null","","null","","","","","main_T1_ITI","","","","",""
"","","","","","visual-search-circle","35","272030","0.0-14.0-0.0-1.10","5fd60b369aa1a548ed311af6","619531dcf66c91622fa1b861","619595fe4c3aa422809beede","1658.800000011921","","d","true","[[599,315],[499,75],[248,4],[36,155],[23,415],[218,588],[474,544]]","true","7","main_T2_Trial","d","img/Fire_Down_Target.gif","[""img/Fire_Up_Distractor.gif"",""img/Fire_Up_Distractor.gif"",""img/Fire_Up_Distractor.gif"",""img/Fire_Up_Distractor.gif"",""img/Fire_Up_Distractor.gif"",""img/Fire_Up_Distractor.gif"",""img/Fire_Up_Distractor.gif"",""img/Fire_Up_Distractor.gif"",""img/Fire_Up_Distractor.gif"",""img/Fire_Up_Distractor.gif"",""img/Fire_Up_Distractor.gif"",""img/Fire_Up_Distractor.gif""]","7","targetDown_distractorsUp"
"","","","","","html-keyboard-response","36","272031","0.0-14.0-0.0-0.11","5fd60b369aa1a548ed311af6","619531dcf66c91622fa1b861","619595fe4c3aa422809beede","null","","null","","","","","main_T1_ITI","","","","",""
"","","","","","visual-search-circle","37","274398","0.0-14.0-0.0-1.11","5fd60b369aa1a548ed311af6","619531dcf66c91622fa1b861","619595fe4c3aa422809beede","1353.199999988079","","s","true","[[237,593],[559,450],[522,99],[177,25],[1,331]]","false","5","main_T2_Trial","s","img/Fire_Up_Target.gif","[""img/Fire_Down_Distractor.gif"",""img/Fire_Down_Distractor.gif"",""img/Fire_Down_Distractor.gif"",""img/Fire_Down_Distractor.gif"",""img/Fire_Down_Distractor.gif"",""img/Fire_Down_Distractor.gif"",""img/Fire_Down_Distractor.gif"",""img/Fire_Down_Distractor.gif"",""img/Fire_Down_Distractor.gif"",""img/Fire_Down_Distractor.gif"",""img/Fire_Down_Distractor.gif"",""img/Fire_Down_Distractor.gif""]","5","targetUp_distractorsDown"
"","","","","","html-keyboard-response","38","274498","0.0-14.0-0.0-0.12","5fd60b369aa1a548ed311af6","619531dcf66c91622fa1b861","619595fe4c3aa422809beede","null","","null","","","","","main_T1_ITI","","","","",""
"","","","","","visual-search-circle","39","276758","0.0-14.0-0.0-1.12","5fd60b369aa1a548ed311af6","619531dcf66c91622fa1b861","619595fe4c3aa422809beede","1234.5","","s","true","[[268,598],[542,476],[574,177],[331,1],[57,123],[25,422]]","false","6","main_T2_Trial","s","img/Fire_Down_Target.gif","[""img/Fire_Up_Distractor.gif"",""img/Fire_Up_Distractor.gif"",""img/Fire_Up_Distractor.gif"",""img/Fire_Up_Distractor.gif"",""img/Fire_Up_Distractor.gif"",""img/Fire_Up_Distractor.gif"",""img/Fire_Up_Distractor.gif"",""img/Fire_Up_Distractor.gif"",""img/Fire_Up_Distractor.gif"",""img/Fire_Up_Distractor.gif"",""img/Fire_Up_Distractor.gif"",""img/Fire_Up_Distractor.gif""]","6","targetDown_distractorsUp"
"","","","","","html-keyboard-response","40","276761","0.0-14.0-0.0-0.13","5fd60b369aa1a548ed311af6","619531dcf66c91622fa1b861","619595fe4c3aa422809beede","null","","null","","","","","main_T1_ITI","","","","",""
"","","","","","visual-search-circle","41","279092","0.0-14.0-0.0-1.13","5fd60b369aa1a548ed311af6","619531dcf66c91622fa1b861","619595fe4c3aa422809beede","1319.4000000059605","","s","true","[[25,422],[422,574],[574,177],[177,25]]","false","4","main_T2_Trial","s","img/Fire_Down_Target.gif","[""img/Fire_Up_Distractor.gif"",""img/Fire_Up_Distractor.gif"",""img/Fire_Up_Distractor.gif"",""img/Fire_Up_Distractor.gif"",""img/Fire_Up_Distractor.gif"",""img/Fire_Up_Distractor.gif"",""img/Fire_Up_Distractor.gif"",""img/Fire_Up_Distractor.gif"",""img/Fire_Up_Distractor.gif"",""img/Fire_Up_Distractor.gif"",""img/Fire_Up_Distractor.gif"",""img/Fire_Up_Distractor.gif""]","4","targetDown_distractorsUp"
"","","","","","html-keyboard-response","42","279094","0.0-14.0-0.0-0.14","5fd60b369aa1a548ed311af6","619531dcf66c91622fa1b861","619595fe4c3aa422809beede","null","","null","","","","","main_T1_ITI","","","","",""
"","","","","","visual-search-circle","43","282637","0.0-14.0-0.0-1.14","5fd60b369aa1a548ed311af6","619531dcf66c91622fa1b861","619595fe4c3aa422809beede","2525.300000011921","","d","true","[[237,6],[6,362],[362,593],[593,237]]","true","4","main_T2_Trial","d","img/Fire_Down_Target.gif","[""img/Fire_Up_Distractor.gif"",""img/Fire_Up_Distractor.gif"",""img/Fire_Up_Distractor.gif"",""img/Fire_Up_Distractor.gif"",""img/Fire_Up_Distractor.gif"",""img/Fire_Up_Distractor.gif"",""img/Fire_Up_Distractor.gif"",""img/Fire_Up_Distractor.gif"",""img/Fire_Up_Distractor.gif"",""img/Fire_Up_Distractor.gif"",""img/Fire_Up_Distractor.gif"",""img/Fire_Up_Distractor.gif""]","4","targetDown_distractorsUp"
"","","","","","html-keyboard-response","44","282653","0.0-14.0-0.0-0.15","5fd60b369aa1a548ed311af6","619531dcf66c91622fa1b861","619595fe4c3aa422809beede","null","","null","","","","","main_T1_ITI","","","","",""
"","","","","","visual-search-circle","45","284999","0.0-14.0-0.0-1.15","5fd60b369aa1a548ed311af6","619531dcf66c91622fa1b861","619595fe4c3aa422809beede","1329.0999999940395","","s","true","[[268,598],[513,510],[597,264],[457,44],[198,17],[16,203],[47,461]]","false","7","main_T2_Trial","s","img/Fire_Up_Target.gif","[""img/Fire_Down_Distractor.gif"",""img/Fire_Down_Distractor.gif"",""img/Fire_Down_Distractor.gif"",""img/Fire_Down_Distractor.gif"",""img/Fire_Down_Distractor.gif"",""img/Fire_Down_Distractor.gif"",""img/Fire_Down_Distractor.gif"",""img/Fire_Down_Distractor.gif"",""img/Fire_Down_Distractor.gif"",""img/Fire_Down_Distractor.gif"",""img/Fire_Down_Distractor.gif"",""img/Fire_Down_Distractor.gif""]","7","targetUp_distractorsDown"
"","","","","","html-keyboard-response","46","285002","0.0-14.0-0.0-0.16","5fd60b369aa1a548ed311af6","619531dcf66c91622fa1b861","619595fe4c3aa422809beede","null","","null","","","","","main_T1_ITI","","","","",""
"","","","","","visual-search-circle","47","287652","0.0-14.0-0.0-1.16","5fd60b369aa1a548ed311af6","619531dcf66c91622fa1b861","619595fe4c3aa422809beede","1635.0999999940395","","d","false","[[480,539],[583,202],[294,0],[13,212],[127,545]]","false","5","main_T2_Trial","s","img/Fire_Up_Target.gif","[""img/Fire_Down_Distractor.gif"",""img/Fire_Down_Distractor.gif"",""img/Fire_Down_Distractor.gif"",""img/Fire_Down_Distractor.gif"",""img/Fire_Down_Distractor.gif"",""img/Fire_Down_Distractor.gif"",""img/Fire_Down_Distractor.gif"",""img/Fire_Down_Distractor.gif"",""img/Fire_Down_Distractor.gif"",""img/Fire_Down_Distractor.gif"",""img/Fire_Down_Distractor.gif"",""img/Fire_Down_Distractor.gif""]","5","targetUp_distractorsDown"
"","","","","","html-keyboard-response","48","287672","0.0-14.0-0.0-0.17","5fd60b369aa1a548ed311af6","619531dcf66c91622fa1b861","619595fe4c3aa422809beede","null","","null","","","","","main_T1_ITI","","","","",""
"","","","","","visual-search-circle","49","291068","0.0-14.0-0.0-1.17","5fd60b369aa1a548ed311af6","619531dcf66c91622fa1b861","619595fe4c3aa422809beede","2374.4000000059605","","d","true","[[136,48],[0,315],[163,567],[463,551],[599,284],[436,32]]","true","6","main_T2_Trial","d","img/Fire_Up_Target.gif","[""img/Fire_Down_Distractor.gif"",""img/Fire_Down_Distractor.gif"",""img/Fire_Down_Distractor.gif"",""img/Fire_Down_Distractor.gif"",""img/Fire_Down_Distractor.gif"",""img/Fire_Down_Distractor.gif"",""img/Fire_Down_Distractor.gif"",""img/Fire_Down_Distractor.gif"",""img/Fire_Down_Distractor.gif"",""img/Fire_Down_Distractor.gif"",""img/Fire_Down_Distractor.gif"",""img/Fire_Down_Distractor.gif""]","6","targetUp_distractorsDown"
"","","","","","html-keyboard-response","50","291070","0.0-14.0-0.0-0.18","5fd60b369aa1a548ed311af6","619531dcf66c91622fa1b861","619595fe4c3aa422809beede","null","","null","","","","","main_T1_ITI","","","","",""
"","","","","","visual-search-circle","51","293336","0.0-14.0-0.0-1.18","5fd60b369aa1a548ed311af6","619531dcf66c91622fa1b861","619595fe4c3aa422809beede","1254.7000000178814","","s","true","[[598,273],[492,70],[273,1],[70,107],[1,326],[107,529],[326,598],[529,492]]","false","8","main_T2_Trial","s","img/Fire_Up_Target.gif","[""img/Fire_Down_Distractor.gif"",""img/Fire_Down_Distractor.gif"",""img/Fire_Down_Distractor.gif"",""img/Fire_Down_Distractor.gif"",""img/Fire_Down_Distractor.gif"",""img/Fire_Down_Distractor.gif"",""img/Fire_Down_Distractor.gif"",""img/Fire_Down_Distractor.gif"",""img/Fire_Down_Distractor.gif"",""img/Fire_Down_Distractor.gif"",""img/Fire_Down_Distractor.gif"",""img/Fire_Down_Distractor.gif""]","8","targetUp_distractorsDown"
"","","","","","html-keyboard-response","52","296049","0.0-14.0-0.0-0.19","5fd60b369aa1a548ed311af6","619531dcf66c91622fa1b861","619595fe4c3aa422809beede","2713","Wow! You've completed 20 out of 160 trials! </p> <p>  </p><p> Take a quick break, then press any key when you're ready to continue."," ","","","","","main_T1_ITI","","","","",""
"","","","","","visual-search-circle","53","298206","0.0-14.0-0.0-1.19","5fd60b369aa1a548ed311af6","619531dcf66c91622fa1b861","619595fe4c3aa422809beede","1143.9000000059605","","d","true","[[545,127],[318,0],[77,98],[3,348],[153,561],[413,577],[587,384]]","true","7","main_T2_Trial","d","img/Fire_Up_Target.gif","[""img/Fire_Down_Distractor.gif"",""img/Fire_Down_Distractor.gif"",""img/Fire_Down_Distractor.gif"",""img/Fire_Down_Distractor.gif"",""img/Fire_Down_Distractor.gif"",""img/Fire_Down_Distractor.gif"",""img/Fire_Down_Distractor.gif"",""img/Fire_Down_Distractor.gif"",""img/Fire_Down_Distractor.gif"",""img/Fire_Down_Distractor.gif"",""img/Fire_Down_Distractor.gif"",""img/Fire_Down_Distractor.gif""]","7","targetUp_distractorsDown"
"","","","","","html-keyboard-response","54","298208","0.0-14.0-0.0-0.20","5fd60b369aa1a548ed311af6","619531dcf66c91622fa1b861","619595fe4c3aa422809beede","null","","null","","","","","main_T1_ITI","","","","",""
"","","","","","visual-search-circle","55","300503","0.0-14.0-0.0-1.20","5fd60b369aa1a548ed311af6","619531dcf66c91622fa1b861","619595fe4c3aa422809beede","1273.800000011921","","s","true","[[187,578],[484,536],[597,258],[412,21],[115,63],[2,341]]","false","6","main_T2_Trial","s","img/Fire_Down_Target.gif","[""img/Fire_Up_Distractor.gif"",""img/Fire_Up_Distractor.gif"",""img/Fire_Up_Distractor.gif"",""img/Fire_Up_Distractor.gif"",""img/Fire_Up_Distractor.gif"",""img/Fire_Up_Distractor.gif"",""img/Fire_Up_Distractor.gif"",""img/Fire_Up_Distractor.gif"",""img/Fire_Up_Distractor.gif"",""img/Fire_Up_Distractor.gif"",""img/Fire_Up_Distractor.gif"",""img/Fire_Up_Distractor.gif""]","6","targetDown_distractorsUp"
"","","","","","html-keyboard-response","56","300505","0.0-14.0-0.0-0.21","5fd60b369aa1a548ed311af6","619531dcf66c91622fa1b861","619595fe4c3aa422809beede","null","","null","","","","","main_T1_ITI","","","","",""
"","","","","","visual-search-circle","57","302572","0.0-14.0-0.0-1.21","5fd60b369aa1a548ed311af6","619531dcf66c91622fa1b861","619595fe4c3aa422809beede","1041.2999999821186","","s","true","[[536,115],[336,2],[115,63],[2,263],[63,484],[263,597],[484,536],[597,336]]","false","8","main_T2_Trial","s","img/Fire_Up_Target.gif","[""img/Fire_Down_Distractor.gif"",""img/Fire_Down_Distractor.gif"",""img/Fire_Down_Distractor.gif"",""img/Fire_Down_Distractor.gif"",""img/Fire_Down_Distractor.gif"",""img/Fire_Down_Distractor.gif"",""img/Fire_Down_Distractor.gif"",""img/Fire_Down_Distractor.gif"",""img/Fire_Down_Distractor.gif"",""img/Fire_Down_Distractor.gif"",""img/Fire_Down_Distractor.gif"",""img/Fire_Down_Distractor.gif""]","8","targetUp_distractorsDown"
"","","","","","html-keyboard-response","58","302574","0.0-14.0-0.0-0.22","5fd60b369aa1a548ed311af6","619531dcf66c91622fa1b861","619595fe4c3aa422809beede","null","","null","","","","","main_T1_ITI","","","","",""
"","","","","","visual-search-circle","59","304548","0.0-14.0-0.0-1.22","5fd60b369aa1a548ed311af6","619531dcf66c91622fa1b861","619595fe4c3aa422809beede","962.1999999880791","","d","true","[[548,132],[132,51],[51,467],[467,548]]","true","4","main_T2_Trial","d","img/Fire_Down_Target.gif","[""img/Fire_Up_Distractor.gif"",""img/Fire_Up_Distractor.gif"",""img/Fire_Up_Distractor.gif"",""img/Fire_Up_Distractor.gif"",""img/Fire_Up_Distractor.gif"",""img/Fire_Up_Distractor.gif"",""img/Fire_Up_Distractor.gif"",""img/Fire_Up_Distractor.gif"",""img/Fire_Up_Distractor.gif"",""img/Fire_Up_Distractor.gif"",""img/Fire_Up_Distractor.gif"",""img/Fire_Up_Distractor.gif""]","4","targetDown_distractorsUp"
"","","","","","html-keyboard-response","60","304551","0.0-14.0-0.0-0.23","5fd60b369aa1a548ed311af6","619531dcf66c91622fa1b861","619595fe4c3aa422809beede","null","","null","","","","","main_T1_ITI","","","","",""
"","","","","","visual-search-circle","61","307116","0.0-14.0-0.0-1.23","5fd60b369aa1a548ed311af6","619531dcf66c91622fa1b861","619595fe4c3aa422809beede","1547","","d","true","[[8,227],[91,515],[382,588],[591,372],[508,84],[217,11]]","true","6","main_T2_Trial","d","img/Fire_Down_Target.gif","[""img/Fire_Up_Distractor.gif"",""img/Fire_Up_Distractor.gif"",""img/Fire_Up_Distractor.gif"",""img/Fire_Up_Distractor.gif"",""img/Fire_Up_Distractor.gif"",""img/Fire_Up_Distractor.gif"",""img/Fire_Up_Distractor.gif"",""img/Fire_Up_Distractor.gif"",""img/Fire_Up_Distractor.gif"",""img/Fire_Up_Distractor.gif"",""img/Fire_Up_Distractor.gif"",""img/Fire_Up_Distractor.gif""]","6","targetDown_distractorsUp"
"","","","","","html-keyboard-response","62","307117","0.0-14.0-0.0-0.24","5fd60b369aa1a548ed311af6","619531dcf66c91622fa1b861","619595fe4c3aa422809beede","null","","null","","","","","main_T1_ITI","","","","",""
"","","","","","visual-search-circle","63","309973","0.0-14.0-0.0-1.24","5fd60b369aa1a548ed311af6","619531dcf66c91622fa1b861","619595fe4c3aa422809beede","1838.0999999940395","","d","false","[[407,580],[599,284],[377,10],[48,136],[66,488]]","false","5","main_T2_Trial","s","img/Fire_Up_Target.gif","[""img/Fire_Down_Distractor.gif"",""img/Fire_Down_Distractor.gif"",""img/Fire_Down_Distractor.gif"",""img/Fire_Down_Distractor.gif"",""img/Fire_Down_Distractor.gif"",""img/Fire_Down_Distractor.gif"",""img/Fire_Down_Distractor.gif"",""img/Fire_Down_Distractor.gif"",""img/Fire_Down_Distractor.gif"",""img/Fire_Down_Distractor.gif"",""img/Fire_Down_Distractor.gif"",""img/Fire_Down_Distractor.gif""]","5","targetUp_distractorsDown"
"","","","","","html-keyboard-response","64","309975","0.0-14.0-0.0-0.25","5fd60b369aa1a548ed311af6","619531dcf66c91622fa1b861","619595fe4c3aa422809beede","null","","null","","","","","main_T1_ITI","","","","",""
"","","","","","visual-search-circle","65","312345","0.0-14.0-0.0-1.25","5fd60b369aa1a548ed311af6","619531dcf66c91622fa1b861","619595fe4c3aa422809beede","1361.5999999940395","","s","true","[[315,599],[599,284],[284,0],[0,315]]","false","4","main_T2_Trial","s","img/Fire_Up_Target.gif","[""img/Fire_Down_Distractor.gif"",""img/Fire_Down_Distractor.gif"",""img/Fire_Down_Distractor.gif"",""img/Fire_Down_Distractor.gif"",""img/Fire_Down_Distractor.gif"",""img/Fire_Down_Distractor.gif"",""img/Fire_Down_Distractor.gif"",""img/Fire_Down_Distractor.gif"",""img/Fire_Down_Distractor.gif"",""img/Fire_Down_Distractor.gif"",""img/Fire_Down_Distractor.gif"",""img/Fire_Down_Distractor.gif""]","4","targetUp_distractorsDown"
"","","","","","html-keyboard-response","66","312353","0.0-14.0-0.0-0.26","5fd60b369aa1a548ed311af6","619531dcf66c91622fa1b861","619595fe4c3aa422809beede","null","","null","","","","","main_T1_ITI","","","","",""
"","","","","","visual-search-circle","67","315443","0.0-14.0-0.0-1.26","5fd60b369aa1a548ed311af6","619531dcf66c91622fa1b861","619595fe4c3aa422809beede","2078.899999976158","","d","true","[[372,591],[588,382],[515,91],[227,8],[11,217],[84,508]]","true","6","main_T2_Trial","d","img/Fire_Up_Target.gif","[""img/Fire_Down_Distractor.gif"",""img/Fire_Down_Distractor.gif"",""img/Fire_Down_Distractor.gif"",""img/Fire_Down_Distractor.gif"",""img/Fire_Down_Distractor.gif"",""img/Fire_Down_Distractor.gif"",""img/Fire_Down_Distractor.gif"",""img/Fire_Down_Distractor.gif"",""img/Fire_Down_Distractor.gif"",""img/Fire_Down_Distractor.gif"",""img/Fire_Down_Distractor.gif"",""img/Fire_Down_Distractor.gif""]","6","targetUp_distractorsDown"
"","","","","","html-keyboard-response","68","315527","0.0-14.0-0.0-0.27","5fd60b369aa1a548ed311af6","619531dcf66c91622fa1b861","619595fe4c3aa422809beede","null","","null","","","","","main_T1_ITI","","","","",""
"","","","","","visual-search-circle","69","318803","0.0-14.0-0.0-1.27","5fd60b369aa1a548ed311af6","619531dcf66c91622fa1b861","619595fe4c3aa422809beede","2230.4000000059605","","s","true","[[536,484],[591,230],[427,28],[167,31],[6,236],[67,489],[302,599]]","false","7","main_T2_Trial","s","img/Fire_Down_Target.gif","[""img/Fire_Up_Distractor.gif"",""img/Fire_Up_Distractor.gif"",""img/Fire_Up_Distractor.gif"",""img/Fire_Up_Distractor.gif"",""img/Fire_Up_Distractor.gif"",""img/Fire_Up_Distractor.gif"",""img/Fire_Up_Distractor.gif"",""img/Fire_Up_Distractor.gif"",""img/Fire_Up_Distractor.gif"",""img/Fire_Up_Distractor.gif"",""img/Fire_Up_Distractor.gif"",""img/Fire_Up_Distractor.gif""]","7","targetDown_distractorsUp"
"","","","","","html-keyboard-response","70","318816","0.0-14.0-0.0-0.28","5fd60b369aa1a548ed311af6","619531dcf66c91622fa1b861","619595fe4c3aa422809beede","null","","null","","","","","main_T1_ITI","","","","",""
"","","","","","visual-search-circle","71","322479","0.0-14.0-0.0-1.28","5fd60b369aa1a548ed311af6","619531dcf66c91622fa1b861","619595fe4c3aa422809beede","2651.399999976158","","s","true","[[305,0],[91,84],[0,294],[84,508],[294,599],[508,515],[599,305],[515,91]]","false","8","main_T2_Trial","s","img/Fire_Down_Target.gif","[""img/Fire_Up_Distractor.gif"",""img/Fire_Up_Distractor.gif"",""img/Fire_Up_Distractor.gif"",""img/Fire_Up_Distractor.gif"",""img/Fire_Up_Distractor.gif"",""img/Fire_Up_Distractor.gif"",""img/Fire_Up_Distractor.gif"",""img/Fire_Up_Distractor.gif"",""img/Fire_Up_Distractor.gif"",""img/Fire_Up_Distractor.gif"",""img/Fire_Up_Distractor.gif"",""img/Fire_Up_Distractor.gif""]","8","targetDown_distractorsUp"
"","","","","","html-keyboard-response","72","322528","0.0-14.0-0.0-0.29","5fd60b369aa1a548ed311af6","619531dcf66c91622fa1b861","619595fe4c3aa422809beede","null","","null","","","","","main_T1_ITI","","","","",""
"","","","","","visual-search-circle","73","324950","0.0-14.0-0.0-1.29","5fd60b369aa1a548ed311af6","619531dcf66c91622fa1b861","619595fe4c3aa422809beede","1410.2999999821186","","d","true","[[472,545],[598,273],[426,28],[127,54],[1,326],[173,571]]","true","6","main_T2_Trial","d","img/Fire_Down_Target.gif","[""img/Fire_Up_Distractor.gif"",""img/Fire_Up_Distractor.gif"",""img/Fire_Up_Distractor.gif"",""img/Fire_Up_Distractor.gif"",""img/Fire_Up_Distractor.gif"",""img/Fire_Up_Distractor.gif"",""img/Fire_Up_Distractor.gif"",""img/Fire_Up_Distractor.gif"",""img/Fire_Up_Distractor.gif"",""img/Fire_Up_Distractor.gif"",""img/Fire_Up_Distractor.gif"",""img/Fire_Up_Distractor.gif""]","6","targetDown_distractorsUp"
"","","","","","html-keyboard-response","74","324954","0.0-14.0-0.0-0.30","5fd60b369aa1a548ed311af6","619531dcf66c91622fa1b861","619595fe4c3aa422809beede","null","","null","","","","","main_T1_ITI","","","","",""
"","","","","","visual-search-circle","75","327398","0.0-14.0-0.0-1.30","5fd60b369aa1a548ed311af6","619531dcf66c91622fa1b861","619595fe4c3aa422809beede","1426.300000011921","","d","true","[[84,91],[91,515],[515,508],[508,84]]","true","4","main_T2_Trial","d","img/Fire_Up_Target.gif","[""img/Fire_Down_Distractor.gif"",""img/Fire_Down_Distractor.gif"",""img/Fire_Down_Distractor.gif"",""img/Fire_Down_Distractor.gif"",""img/Fire_Down_Distractor.gif"",""img/Fire_Down_Distractor.gif"",""img/Fire_Down_Distractor.gif"",""img/Fire_Down_Distractor.gif"",""img/Fire_Down_Distractor.gif"",""img/Fire_Down_Distractor.gif"",""img/Fire_Down_Distractor.gif"",""img/Fire_Down_Distractor.gif""]","4","targetUp_distractorsDown"
"","","","","","html-keyboard-response","76","327459","0.0-14.0-0.0-0.31","5fd60b369aa1a548ed311af6","619531dcf66c91622fa1b861","619595fe4c3aa422809beede","null","","null","","","","","main_T1_ITI","","","","",""
"","","","","","visual-search-circle","77","331054","0.0-14.0-0.0-1.31","5fd60b369aa1a548ed311af6","619531dcf66c91622fa1b861","619595fe4c3aa422809beede","2576.699999988079","","s","true","[[367,592],[598,326],[417,23],[73,103],[42,454]]","false","5","main_T2_Trial","s","img/Fire_Down_Target.gif","[""img/Fire_Up_Distractor.gif"",""img/Fire_Up_Distractor.gif"",""img/Fire_Up_Distractor.gif"",""img/Fire_Up_Distractor.gif"",""img/Fire_Up_Distractor.gif"",""img/Fire_Up_Distractor.gif"",""img/Fire_Up_Distractor.gif"",""img/Fire_Up_Distractor.gif"",""img/Fire_Up_Distractor.gif"",""img/Fire_Up_Distractor.gif"",""img/Fire_Up_Distractor.gif"",""img/Fire_Up_Distractor.gif""]","5","targetDown_distractorsUp"
"","","","","","html-keyboard-response","78","331057","0.0-14.0-0.0-0.32","5fd60b369aa1a548ed311af6","619531dcf66c91622fa1b861","619595fe4c3aa422809beede","null","","null","","","","","main_T1_ITI","","","","",""
"","","","","","visual-search-circle","79","333880","0.0-14.0-0.0-1.32","5fd60b369aa1a548ed311af6","619531dcf66c91622fa1b861","619595fe4c3aa422809beede","1808","","s","true","[[173,571],[433,568],[593,363],[532,110],[296,0],[63,115],[8,370]]","false","7","main_T2_Trial","s","img/Fire_Up_Target.gif","[""img/Fire_Down_Distractor.gif"",""img/Fire_Down_Distractor.gif"",""img/Fire_Down_Distractor.gif"",""img/Fire_Down_Distractor.gif"",""img/Fire_Down_Distractor.gif"",""img/Fire_Down_Distractor.gif"",""img/Fire_Down_Distractor.gif"",""img/Fire_Down_Distractor.gif"",""img/Fire_Down_Distractor.gif"",""img/Fire_Down_Distractor.gif"",""img/Fire_Down_Distractor.gif"",""img/Fire_Down_Distractor.gif""]","7","targetUp_distractorsDown"
"","","","","","html-keyboard-response","80","333883","0.0-14.0-0.0-0.33","5fd60b369aa1a548ed311af6","619531dcf66c91622fa1b861","619595fe4c3aa422809beede","null","","null","","","","","main_T1_ITI","","","","",""
"","","","","","visual-search-circle","81","336054","0.0-14.0-0.0-1.33","5fd60b369aa1a548ed311af6","619531dcf66c91622fa1b861","619595fe4c3aa422809beede","1154.4000000059605","","d","true","[[431,30],[202,16],[30,168],[16,397],[168,569],[397,583],[569,431],[583,202]]","true","8","main_T2_Trial","d","img/Fire_Down_Target.gif","[""img/Fire_Up_Distractor.gif"",""img/Fire_Up_Distractor.gif"",""img/Fire_Up_Distractor.gif"",""img/Fire_Up_Distractor.gif"",""img/Fire_Up_Distractor.gif"",""img/Fire_Up_Distractor.gif"",""img/Fire_Up_Distractor.gif"",""img/Fire_Up_Distractor.gif"",""img/Fire_Up_Distractor.gif"",""img/Fire_Up_Distractor.gif"",""img/Fire_Up_Distractor.gif"",""img/Fire_Up_Distractor.gif""]","8","targetDown_distractorsUp"
"","","","","","html-keyboard-response","82","336055","0.0-14.0-0.0-0.34","5fd60b369aa1a548ed311af6","619531dcf66c91622fa1b861","619595fe4c3aa422809beede","null","","null","","","","","main_T1_ITI","","","","",""
"","","","","","visual-search-circle","83","339228","0.0-14.0-0.0-1.34","5fd60b369aa1a548ed311af6","619531dcf66c91622fa1b861","619595fe4c3aa422809beede","2159.4000000059605","","d","true","[[567,436],[585,207],[436,32],[207,14],[32,163],[14,392],[163,567],[392,585]]","true","8","main_T2_Trial","d","img/Fire_Up_Target.gif","[""img/Fire_Down_Distractor.gif"",""img/Fire_Down_Distractor.gif"",""img/Fire_Down_Distractor.gif"",""img/Fire_Down_Distractor.gif"",""img/Fire_Down_Distractor.gif"",""img/Fire_Down_Distractor.gif"",""img/Fire_Down_Distractor.gif"",""img/Fire_Down_Distractor.gif"",""img/Fire_Down_Distractor.gif"",""img/Fire_Down_Distractor.gif"",""img/Fire_Down_Distractor.gif"",""img/Fire_Down_Distractor.gif""]","8","targetUp_distractorsDown"
"","","","","","html-keyboard-response","84","339236","0.0-14.0-0.0-0.35","5fd60b369aa1a548ed311af6","619531dcf66c91622fa1b861","619595fe4c3aa422809beede","null","","null","","","","","main_T1_ITI","","","","",""
"","","","","","visual-search-circle","85","343364","0.0-14.0-0.0-1.35","5fd60b369aa1a548ed311af6","619531dcf66c91622fa1b861","619595fe4c3aa422809beede","3099.5","","d","true","[[2,336],[115,536],[336,597],[536,484],[597,263],[484,63],[263,2],[63,115]]","true","8","main_T2_Trial","d","img/Fire_Down_Target.gif","[""img/Fire_Up_Distractor.gif"",""img/Fire_Up_Distractor.gif"",""img/Fire_Up_Distractor.gif"",""img/Fire_Up_Distractor.gif"",""img/Fire_Up_Distractor.gif"",""img/Fire_Up_Distractor.gif"",""img/Fire_Up_Distractor.gif"",""img/Fire_Up_Distractor.gif"",""img/Fire_Up_Distractor.gif"",""img/Fire_Up_Distractor.gif"",""img/Fire_Up_Distractor.gif"",""img/Fire_Up_Distractor.gif""]","8","targetDown_distractorsUp"
"","","","","","html-keyboard-response","86","343367","0.0-14.0-0.0-0.36","5fd60b369aa1a548ed311af6","619531dcf66c91622fa1b861","619595fe4c3aa422809beede","null","","null","","","","","main_T1_ITI","","","","",""
"","","","","","visual-search-circle","87","345249","0.0-14.0-0.0-1.36","5fd60b369aa1a548ed311af6","619531dcf66c91622fa1b861","619595fe4c3aa422809beede","871.6000000238419","","d","true","[[417,23],[23,182],[182,576],[576,417]]","true","4","main_T2_Trial","d","img/Fire_Down_Target.gif","[""img/Fire_Up_Distractor.gif"",""img/Fire_Up_Distractor.gif"",""img/Fire_Up_Distractor.gif"",""img/Fire_Up_Distractor.gif"",""img/Fire_Up_Distractor.gif"",""img/Fire_Up_Distractor.gif"",""img/Fire_Up_Distractor.gif"",""img/Fire_Up_Distractor.gif"",""img/Fire_Up_Distractor.gif"",""img/Fire_Up_Distractor.gif"",""img/Fire_Up_Distractor.gif"",""img/Fire_Up_Distractor.gif""]","4","targetDown_distractorsUp"
"","","","","","html-keyboard-response","88","345255","0.0-14.0-0.0-0.37","5fd60b369aa1a548ed311af6","619531dcf66c91622fa1b861","619595fe4c3aa422809beede","null","","null","","","","","main_T1_ITI","","","","",""
"","","","","","visual-search-circle","89","348053","0.0-14.0-0.0-1.37","5fd60b369aa1a548ed311af6","619531dcf66c91622fa1b861","619595fe4c3aa422809beede","1787.5","","s","true","[[54,472],[472,545],[545,127],[127,54]]","false","4","main_T2_Trial","s","img/Fire_Up_Target.gif","[""img/Fire_Down_Distractor.gif"",""img/Fire_Down_Distractor.gif"",""img/Fire_Down_Distractor.gif"",""img/Fire_Down_Distractor.gif"",""img/Fire_Down_Distractor.gif"",""img/Fire_Down_Distractor.gif"",""img/Fire_Down_Distractor.gif"",""img/Fire_Down_Distractor.gif"",""img/Fire_Down_Distractor.gif"",""img/Fire_Down_Distractor.gif"",""img/Fire_Down_Distractor.gif"",""img/Fire_Down_Distractor.gif""]","4","targetUp_distractorsDown"
"","","","","","html-keyboard-response","90","348056","0.0-14.0-0.0-0.38","5fd60b369aa1a548ed311af6","619531dcf66c91622fa1b861","619595fe4c3aa422809beede","null","","null","","","","","main_T1_ITI","","","","",""
"","","","","","visual-search-circle","91","350378","0.0-14.0-0.0-1.38","5fd60b369aa1a548ed311af6","619531dcf66c91622fa1b861","619595fe4c3aa422809beede","1306.5","","s","true","[[508,84],[261,2],[43,144],[18,404],[205,584],[464,551],[598,328]]","false","7","main_T2_Trial","s","img/Fire_Up_Target.gif","[""img/Fire_Down_Distractor.gif"",""img/Fire_Down_Distractor.gif"",""img/Fire_Down_Distractor.gif"",""img/Fire_Down_Distractor.gif"",""img/Fire_Down_Distractor.gif"",""img/Fire_Down_Distractor.gif"",""img/Fire_Down_Distractor.gif"",""img/Fire_Down_Distractor.gif"",""img/Fire_Down_Distractor.gif"",""img/Fire_Down_Distractor.gif"",""img/Fire_Down_Distractor.gif"",""img/Fire_Down_Distractor.gif""]","7","targetUp_distractorsDown"
"","","","","","html-keyboard-response","92","352016","0.0-14.0-0.0-0.39","5fd60b369aa1a548ed311af6","619531dcf66c91622fa1b861","619595fe4c3aa422809beede","1648.699999988079","Wow! You've completed 40 out of 160 trials! </p> <p>  </p><p> Take a quick break, then press any key when you're ready to continue."," ","","","","","main_T1_ITI","","","","",""
"","","","","","visual-search-circle","93","354606","0.0-14.0-0.0-1.39","5fd60b369aa1a548ed311af6","619531dcf66c91622fa1b861","619595fe4c3aa422809beede","1581.6000000238419","","s","true","[[16,397],[168,569],[397,583],[569,431],[583,202],[431,30],[202,16],[30,168]]","false","8","main_T2_Trial","s","img/Fire_Down_Target.gif","[""img/Fire_Up_Distractor.gif"",""img/Fire_Up_Distractor.gif"",""img/Fire_Up_Distractor.gif"",""img/Fire_Up_Distractor.gif"",""img/Fire_Up_Distractor.gif"",""img/Fire_Up_Distractor.gif"",""img/Fire_Up_Distractor.gif"",""img/Fire_Up_Distractor.gif"",""img/Fire_Up_Distractor.gif"",""img/Fire_Up_Distractor.gif"",""img/Fire_Up_Distractor.gif"",""img/Fire_Up_Distractor.gif""]","8","targetDown_distractorsUp"
"","","","","","html-keyboard-response","94","354608","0.0-14.0-0.0-0.40","5fd60b369aa1a548ed311af6","619531dcf66c91622fa1b861","619595fe4c3aa422809beede","null","","null","","","","","main_T1_ITI","","","","",""
"","","","","","visual-search-circle","95","357459","0.0-14.0-0.0-1.40","5fd60b369aa1a548ed311af6","619531dcf66c91622fa1b861","619595fe4c3aa422809beede","1838.4000000059605","","s","true","[[554,458],[592,232],[458,45],[232,7],[45,141],[7,367],[141,554],[367,592]]","false","8","main_T2_Trial","s","img/Fire_Up_Target.gif","[""img/Fire_Down_Distractor.gif"",""img/Fire_Down_Distractor.gif"",""img/Fire_Down_Distractor.gif"",""img/Fire_Down_Distractor.gif"",""img/Fire_Down_Distractor.gif"",""img/Fire_Down_Distractor.gif"",""img/Fire_Down_Distractor.gif"",""img/Fire_Down_Distractor.gif"",""img/Fire_Down_Distractor.gif"",""img/Fire_Down_Distractor.gif"",""img/Fire_Down_Distractor.gif"",""img/Fire_Down_Distractor.gif""]","8","targetUp_distractorsDown"
"","","","","","html-keyboard-response","96","357461","0.0-14.0-0.0-0.41","5fd60b369aa1a548ed311af6","619531dcf66c91622fa1b861","619595fe4c3aa422809beede","null","","null","","","","","main_T1_ITI","","","","",""
"","","","","","visual-search-circle","97","359979","0.0-14.0-0.0-1.41","5fd60b369aa1a548ed311af6","619531dcf66c91622fa1b861","619595fe4c3aa422809beede","1503.5999999940395","","s","true","[[32,163],[87,512],[436,567],[596,253],[346,3]]","false","5","main_T2_Trial","s","img/Fire_Down_Target.gif","[""img/Fire_Up_Distractor.gif"",""img/Fire_Up_Distractor.gif"",""img/Fire_Up_Distractor.gif"",""img/Fire_Up_Distractor.gif"",""img/Fire_Up_Distractor.gif"",""img/Fire_Up_Distractor.gif"",""img/Fire_Up_Distractor.gif"",""img/Fire_Up_Distractor.gif"",""img/Fire_Up_Distractor.gif"",""img/Fire_Up_Distractor.gif"",""img/Fire_Up_Distractor.gif"",""img/Fire_Up_Distractor.gif""]","5","targetDown_distractorsUp"
"","","","","","html-keyboard-response","98","360002","0.0-14.0-0.0-0.42","5fd60b369aa1a548ed311af6","619531dcf66c91622fa1b861","619595fe4c3aa422809beede","null","","null","","","","","main_T1_ITI","","","","",""
"","","","","","visual-search-circle","99","363060","0.0-14.0-0.0-1.42","5fd60b369aa1a548ed311af6","619531dcf66c91622fa1b861","619595fe4c3aa422809beede","2028.199999988079","","s","true","[[192,19],[25,177],[19,407],[177,574],[407,580],[574,422],[580,192],[422,25]]","false","8","main_T2_Trial","s","img/Fire_Up_Target.gif","[""img/Fire_Down_Distractor.gif"",""img/Fire_Down_Distractor.gif"",""img/Fire_Down_Distractor.gif"",""img/Fire_Down_Distractor.gif"",""img/Fire_Down_Distractor.gif"",""img/Fire_Down_Distractor.gif"",""img/Fire_Down_Distractor.gif"",""img/Fire_Down_Distractor.gif"",""img/Fire_Down_Distractor.gif"",""img/Fire_Down_Distractor.gif"",""img/Fire_Down_Distractor.gif"",""img/Fire_Down_Distractor.gif""]","8","targetUp_distractorsDown"
"","","","","","html-keyboard-response","100","363062","0.0-14.0-0.0-0.43","5fd60b369aa1a548ed311af6","619531dcf66c91622fa1b861","619595fe4c3aa422809beede","null","","null","","","","","main_T1_ITI","","","","",""
"","","","","","visual-search-circle","101","365808","0.0-14.0-0.0-1.43","5fd60b369aa1a548ed311af6","619531dcf66c91622fa1b861","619595fe4c3aa422809beede","1739.7000000178814","","s","true","[[357,5],[132,51],[5,242],[51,467],[242,594],[467,548],[594,357],[548,132]]","false","8","main_T2_Trial","s","img/Fire_Down_Target.gif","[""img/Fire_Up_Distractor.gif"",""img/Fire_Up_Distractor.gif"",""img/Fire_Up_Distractor.gif"",""img/Fire_Up_Distractor.gif"",""img/Fire_Up_Distractor.gif"",""img/Fire_Up_Distractor.gif"",""img/Fire_Up_Distractor.gif"",""img/Fire_Up_Distractor.gif"",""img/Fire_Up_Distractor.gif"",""img/Fire_Up_Distractor.gif"",""img/Fire_Up_Distractor.gif"",""img/Fire_Up_Distractor.gif""]","8","targetDown_distractorsUp"
"","","","","","html-keyboard-response","102","365836","0.0-14.0-0.0-0.44","5fd60b369aa1a548ed311af6","619531dcf66c91622fa1b861","619595fe4c3aa422809beede","null","","null","","","","","main_T1_ITI","","","","",""
"","","","","","visual-search-circle","103","367675","0.0-14.0-0.0-1.44","5fd60b369aa1a548ed311af6","619531dcf66c91622fa1b861","619595fe4c3aa422809beede","800.7999999821186","","d","true","[[569,431],[431,30],[30,168],[168,569]]","true","4","main_T2_Trial","d","img/Fire_Up_Target.gif","[""img/Fire_Down_Distractor.gif"",""img/Fire_Down_Distractor.gif"",""img/Fire_Down_Distractor.gif"",""img/Fire_Down_Distractor.gif"",""img/Fire_Down_Distractor.gif"",""img/Fire_Down_Distractor.gif"",""img/Fire_Down_Distractor.gif"",""img/Fire_Down_Distractor.gif"",""img/Fire_Down_Distractor.gif"",""img/Fire_Down_Distractor.gif"",""img/Fire_Down_Distractor.gif"",""img/Fire_Down_Distractor.gif""]","4","targetUp_distractorsDown"
"","","","","","html-keyboard-response","104","367677","0.0-14.0-0.0-0.45","5fd60b369aa1a548ed311af6","619531dcf66c91622fa1b861","619595fe4c3aa422809beede","null","","null","","","","","main_T1_ITI","","","","",""
"","","","","","visual-search-circle","105","369556","0.0-14.0-0.0-1.45","5fd60b369aa1a548ed311af6","619531dcf66c91622fa1b861","619595fe4c3aa422809beede","863.0999999940395","","s","true","[[10,377],[222,589],[512,512],[589,222],[377,10],[87,87]]","false","6","main_T2_Trial","s","img/Fire_Up_Target.gif","[""img/Fire_Down_Distractor.gif"",""img/Fire_Down_Distractor.gif"",""img/Fire_Down_Distractor.gif"",""img/Fire_Down_Distractor.gif"",""img/Fire_Down_Distractor.gif"",""img/Fire_Down_Distractor.gif"",""img/Fire_Down_Distractor.gif"",""img/Fire_Down_Distractor.gif"",""img/Fire_Down_Distractor.gif"",""img/Fire_Down_Distractor.gif"",""img/Fire_Down_Distractor.gif"",""img/Fire_Down_Distractor.gif""]","6","targetUp_distractorsDown"
"","","","","","html-keyboard-response","106","369559","0.0-14.0-0.0-0.46","5fd60b369aa1a548ed311af6","619531dcf66c91622fa1b861","619595fe4c3aa422809beede","null","","null","","","","","main_T1_ITI","","","","",""
"","","","","","visual-search-circle","107","372021","0.0-14.0-0.0-1.46","5fd60b369aa1a548ed311af6","619531dcf66c91622fa1b861","619595fe4c3aa422809beede","1429.9000000059605","","s","true","[[91,84],[8,372],[217,588],[508,515],[591,227],[382,11]]","false","6","main_T2_Trial","s","img/Fire_Down_Target.gif","[""img/Fire_Up_Distractor.gif"",""img/Fire_Up_Distractor.gif"",""img/Fire_Up_Distractor.gif"",""img/Fire_Up_Distractor.gif"",""img/Fire_Up_Distractor.gif"",""img/Fire_Up_Distractor.gif"",""img/Fire_Up_Distractor.gif"",""img/Fire_Up_Distractor.gif"",""img/Fire_Up_Distractor.gif"",""img/Fire_Up_Distractor.gif"",""img/Fire_Up_Distractor.gif"",""img/Fire_Up_Distractor.gif""]","6","targetDown_distractorsUp"
"","","","","","html-keyboard-response","108","372036","0.0-14.0-0.0-0.47","5fd60b369aa1a548ed311af6","619531dcf66c91622fa1b861","619595fe4c3aa422809beede","null","","null","","","","","main_T1_ITI","","","","",""
"","","","","","visual-search-circle","109","374182","0.0-14.0-0.0-1.47","5fd60b369aa1a548ed311af6","619531dcf66c91622fa1b861","619595fe4c3aa422809beede","1126","","s","true","[[357,5],[5,242],[242,594],[594,357]]","false","4","main_T2_Trial","s","img/Fire_Down_Target.gif","[""img/Fire_Up_Distractor.gif"",""img/Fire_Up_Distractor.gif"",""img/Fire_Up_Distractor.gif"",""img/Fire_Up_Distractor.gif"",""img/Fire_Up_Distractor.gif"",""img/Fire_Up_Distractor.gif"",""img/Fire_Up_Distractor.gif"",""img/Fire_Up_Distractor.gif"",""img/Fire_Up_Distractor.gif"",""img/Fire_Up_Distractor.gif"",""img/Fire_Up_Distractor.gif"",""img/Fire_Up_Distractor.gif""]","4","targetDown_distractorsUp"
"","","","","","html-keyboard-response","110","374209","0.0-14.0-0.0-0.48","5fd60b369aa1a548ed311af6","619531dcf66c91622fa1b861","619595fe4c3aa422809beede","null","","null","","","","","main_T1_ITI","","","","",""
"","","","","","visual-search-circle","111","376723","0.0-14.0-0.0-1.48","5fd60b369aa1a548ed311af6","619531dcf66c91622fa1b861","619595fe4c3aa422809beede","1497","","s","true","[[412,21],[70,107],[45,458],[372,591],[599,320]]","false","5","main_T2_Trial","s","img/Fire_Up_Target.gif","[""img/Fire_Down_Distractor.gif"",""img/Fire_Down_Distractor.gif"",""img/Fire_Down_Distractor.gif"",""img/Fire_Down_Distractor.gif"",""img/Fire_Down_Distractor.gif"",""img/Fire_Down_Distractor.gif"",""img/Fire_Down_Distractor.gif"",""img/Fire_Down_Distractor.gif"",""img/Fire_Down_Distractor.gif"",""img/Fire_Down_Distractor.gif"",""img/Fire_Down_Distractor.gif"",""img/Fire_Down_Distractor.gif""]","5","targetUp_distractorsDown"
"","","","","","html-keyboard-response","112","376754","0.0-14.0-0.0-0.49","5fd60b369aa1a548ed311af6","619531dcf66c91622fa1b861","619595fe4c3aa422809beede","null","","null","","","","","main_T1_ITI","","","","",""
"","","","","","visual-search-circle","113","378546","0.0-14.0-0.0-1.49","5fd60b369aa1a548ed311af6","619531dcf66c91622fa1b861","619595fe4c3aa422809beede","770.1999999880791","","d","true","[[192,580],[488,533],[596,253],[407,19],[111,66],[3,346]]","true","6","main_T2_Trial","d","img/Fire_Down_Target.gif","[""img/Fire_Up_Distractor.gif"",""img/Fire_Up_Distractor.gif"",""img/Fire_Up_Distractor.gif"",""img/Fire_Up_Distractor.gif"",""img/Fire_Up_Distractor.gif"",""img/Fire_Up_Distractor.gif"",""img/Fire_Up_Distractor.gif"",""img/Fire_Up_Distractor.gif"",""img/Fire_Up_Distractor.gif"",""img/Fire_Up_Distractor.gif"",""img/Fire_Up_Distractor.gif"",""img/Fire_Up_Distractor.gif""]","6","targetDown_distractorsUp"
"","","","","","html-keyboard-response","114","378556","0.0-14.0-0.0-0.50","5fd60b369aa1a548ed311af6","619531dcf66c91622fa1b861","619595fe4c3aa422809beede","null","","null","","","","","main_T1_ITI","","","","",""
"","","","","","visual-search-circle","115","380917","0.0-14.0-0.0-1.50","5fd60b369aa1a548ed311af6","619531dcf66c91622fa1b861","619595fe4c3aa422809beede","1340.300000011921","","s","true","[[554,141],[141,45],[45,458],[458,554]]","false","4","main_T2_Trial","s","img/Fire_Up_Target.gif","[""img/Fire_Down_Distractor.gif"",""img/Fire_Down_Distractor.gif"",""img/Fire_Down_Distractor.gif"",""img/Fire_Down_Distractor.gif"",""img/Fire_Down_Distractor.gif"",""img/Fire_Down_Distractor.gif"",""img/Fire_Down_Distractor.gif"",""img/Fire_Down_Distractor.gif"",""img/Fire_Down_Distractor.gif"",""img/Fire_Down_Distractor.gif"",""img/Fire_Down_Distractor.gif"",""img/Fire_Down_Distractor.gif""]","4","targetUp_distractorsDown"
"","","","","","html-keyboard-response","116","380923","0.0-14.0-0.0-0.51","5fd60b369aa1a548ed311af6","619531dcf66c91622fa1b861","619595fe4c3aa422809beede","null","","null","","","","","main_T1_ITI","","","","",""
"","","","","","visual-search-circle","117","383071","0.0-14.0-0.0-1.51","5fd60b369aa1a548ed311af6","619531dcf66c91622fa1b861","619595fe4c3aa422809beede","1135.5","","s","true","[[13,212],[212,586],[586,387],[387,13]]","false","4","main_T2_Trial","s","img/Fire_Up_Target.gif","[""img/Fire_Down_Distractor.gif"",""img/Fire_Down_Distractor.gif"",""img/Fire_Down_Distractor.gif"",""img/Fire_Down_Distractor.gif"",""img/Fire_Down_Distractor.gif"",""img/Fire_Down_Distractor.gif"",""img/Fire_Down_Distractor.gif"",""img/Fire_Down_Distractor.gif"",""img/Fire_Down_Distractor.gif"",""img/Fire_Down_Distractor.gif"",""img/Fire_Down_Distractor.gif"",""img/Fire_Down_Distractor.gif""]","4","targetUp_distractorsDown"
"","","","","","html-keyboard-response","118","383074","0.0-14.0-0.0-0.52","5fd60b369aa1a548ed311af6","619531dcf66c91622fa1b861","619595fe4c3aa422809beede","null","","null","","","","","main_T1_ITI","","","","",""
"","","","","","visual-search-circle","119","387132","0.0-14.0-0.0-1.52","5fd60b369aa1a548ed311af6","619531dcf66c91622fa1b861","619595fe4c3aa422809beede","3037.4000000059605","","d","true","[[13,212],[80,504],[367,592],[586,387],[519,95],[232,7]]","true","6","main_T2_Trial","d","img/Fire_Up_Target.gif","[""img/Fire_Down_Distractor.gif"",""img/Fire_Down_Distractor.gif"",""img/Fire_Down_Distractor.gif"",""img/Fire_Down_Distractor.gif"",""img/Fire_Down_Distractor.gif"",""img/Fire_Down_Distractor.gif"",""img/Fire_Down_Distractor.gif"",""img/Fire_Down_Distractor.gif"",""img/Fire_Down_Distractor.gif"",""img/Fire_Down_Distractor.gif"",""img/Fire_Down_Distractor.gif"",""img/Fire_Down_Distractor.gif""]","6","targetUp_distractorsDown"
"","","","","","html-keyboard-response","120","387136","0.0-14.0-0.0-0.53","5fd60b369aa1a548ed311af6","619531dcf66c91622fa1b861","619595fe4c3aa422809beede","null","","null","","","","","main_T1_ITI","","","","",""
"","","","","","visual-search-circle","121","389045","0.0-14.0-0.0-1.53","5fd60b369aa1a548ed311af6","619531dcf66c91622fa1b861","619595fe4c3aa422809beede","891.8000000119209","","d","true","[[7,367],[170,570],[430,569],[592,366],[534,112],[299,0],[64,113]]","true","7","main_T2_Trial","d","img/Fire_Up_Target.gif","[""img/Fire_Down_Distractor.gif"",""img/Fire_Down_Distractor.gif"",""img/Fire_Down_Distractor.gif"",""img/Fire_Down_Distractor.gif"",""img/Fire_Down_Distractor.gif"",""img/Fire_Down_Distractor.gif"",""img/Fire_Down_Distractor.gif"",""img/Fire_Down_Distractor.gif"",""img/Fire_Down_Distractor.gif"",""img/Fire_Down_Distractor.gif"",""img/Fire_Down_Distractor.gif"",""img/Fire_Down_Distractor.gif""]","7","targetUp_distractorsDown"
"","","","","","html-keyboard-response","122","389048","0.0-14.0-0.0-0.54","5fd60b369aa1a548ed311af6","619531dcf66c91622fa1b861","619595fe4c3aa422809beede","null","","null","","","","","main_T1_ITI","","","","",""
"","","","","","visual-search-circle","123","391331","0.0-14.0-0.0-1.54","5fd60b369aa1a548ed311af6","619531dcf66c91622fa1b861","619595fe4c3aa422809beede","1261.5","","d","true","[[597,258],[452,41],[193,19],[14,208],[50,466],[274,598],[517,506]]","true","7","main_T2_Trial","d","img/Fire_Up_Target.gif","[""img/Fire_Down_Distractor.gif"",""img/Fire_Down_Distractor.gif"",""img/Fire_Down_Distractor.gif"",""img/Fire_Down_Distractor.gif"",""img/Fire_Down_Distractor.gif"",""img/Fire_Down_Distractor.gif"",""img/Fire_Down_Distractor.gif"",""img/Fire_Down_Distractor.gif"",""img/Fire_Down_Distractor.gif"",""img/Fire_Down_Distractor.gif"",""img/Fire_Down_Distractor.gif"",""img/Fire_Down_Distractor.gif""]","7","targetUp_distractorsDown"
"","","","","","html-keyboard-response","124","391333","0.0-14.0-0.0-0.55","5fd60b369aa1a548ed311af6","619531dcf66c91622fa1b861","619595fe4c3aa422809beede","null","","null","","","","","main_T1_ITI","","","","",""
"","","","","","visual-search-circle","125","394032","0.0-14.0-0.0-1.55","5fd60b369aa1a548ed311af6","619531dcf66c91622fa1b861","619595fe4c3aa422809beede","1675.699999988079","","d","true","[[440,35],[212,13],[35,159],[13,387],[159,564],[387,586],[564,440],[586,212]]","true","8","main_T2_Trial","d","img/Fire_Down_Target.gif","[""img/Fire_Up_Distractor.gif"",""img/Fire_Up_Distractor.gif"",""img/Fire_Up_Distractor.gif"",""img/Fire_Up_Distractor.gif"",""img/Fire_Up_Distractor.gif"",""img/Fire_Up_Distractor.gif"",""img/Fire_Up_Distractor.gif"",""img/Fire_Up_Distractor.gif"",""img/Fire_Up_Distractor.gif"",""img/Fire_Up_Distractor.gif"",""img/Fire_Up_Distractor.gif"",""img/Fire_Up_Distractor.gif""]","8","targetDown_distractorsUp"
"","","","","","html-keyboard-response","126","394035","0.0-14.0-0.0-0.56","5fd60b369aa1a548ed311af6","619531dcf66c91622fa1b861","619595fe4c3aa422809beede","null","","null","","","","","main_T1_ITI","","","","",""
"","","","","","visual-search-circle","127","396610","0.0-14.0-0.0-1.56","5fd60b369aa1a548ed311af6","619531dcf66c91622fa1b861","619595fe4c3aa422809beede","1563.4000000059605","","s","true","[[450,559],[593,237],[331,1],[25,177],[99,522]]","false","5","main_T2_Trial","s","img/Fire_Up_Target.gif","[""img/Fire_Down_Distractor.gif"",""img/Fire_Down_Distractor.gif"",""img/Fire_Down_Distractor.gif"",""img/Fire_Down_Distractor.gif"",""img/Fire_Down_Distractor.gif"",""img/Fire_Down_Distractor.gif"",""img/Fire_Down_Distractor.gif"",""img/Fire_Down_Distractor.gif"",""img/Fire_Down_Distractor.gif"",""img/Fire_Down_Distractor.gif"",""img/Fire_Down_Distractor.gif"",""img/Fire_Down_Distractor.gif""]","5","targetUp_distractorsDown"
"","","","","","html-keyboard-response","128","396627","0.0-14.0-0.0-0.57","5fd60b369aa1a548ed311af6","619531dcf66c91622fa1b861","619595fe4c3aa422809beede","null","","null","","","","","main_T1_ITI","","","","",""
"","","","","","visual-search-circle","129","398991","0.0-14.0-0.0-1.57","5fd60b369aa1a548ed311af6","619531dcf66c91622fa1b861","619595fe4c3aa422809beede","1350","","s","true","[[594,357],[445,37],[95,80],[28,426],[336,597]]","false","5","main_T2_Trial","s","img/Fire_Down_Target.gif","[""img/Fire_Up_Distractor.gif"",""img/Fire_Up_Distractor.gif"",""img/Fire_Up_Distractor.gif"",""img/Fire_Up_Distractor.gif"",""img/Fire_Up_Distractor.gif"",""img/Fire_Up_Distractor.gif"",""img/Fire_Up_Distractor.gif"",""img/Fire_Up_Distractor.gif"",""img/Fire_Up_Distractor.gif"",""img/Fire_Up_Distractor.gif"",""img/Fire_Up_Distractor.gif"",""img/Fire_Up_Distractor.gif""]","5","targetDown_distractorsUp"
"","","","","","html-keyboard-response","130","398995","0.0-14.0-0.0-0.58","5fd60b369aa1a548ed311af6","619531dcf66c91622fa1b861","619595fe4c3aa422809beede","null","","null","","","","","main_T1_ITI","","","","",""
"","","","","","visual-search-circle","131","400947","0.0-14.0-0.0-1.58","5fd60b369aa1a548ed311af6","619531dcf66c91622fa1b861","619595fe4c3aa422809beede","935.7999999821186","","d","true","[[154,37],[11,217],[37,445],[217,588],[445,562],[588,382],[562,154],[382,11]]","true","8","main_T2_Trial","d","img/Fire_Up_Target.gif","[""img/Fire_Down_Distractor.gif"",""img/Fire_Down_Distractor.gif"",""img/Fire_Down_Distractor.gif"",""img/Fire_Down_Distractor.gif"",""img/Fire_Down_Distractor.gif"",""img/Fire_Down_Distractor.gif"",""img/Fire_Down_Distractor.gif"",""img/Fire_Down_Distractor.gif"",""img/Fire_Down_Distractor.gif"",""img/Fire_Down_Distractor.gif"",""img/Fire_Down_Distractor.gif"",""img/Fire_Down_Distractor.gif""]","8","targetUp_distractorsDown"
"","","","","","html-keyboard-response","132","402047","0.0-14.0-0.0-0.59","5fd60b369aa1a548ed311af6","619531dcf66c91622fa1b861","619595fe4c3aa422809beede","1098.9000000059605","Wow! You've completed 60 out of 160 trials! </p> <p>  </p><p> Take a quick break, then press any key when you're ready to continue."," ","","","","","main_T1_ITI","","","","",""
"","","","","","visual-search-circle","133","404010","0.0-14.0-0.0-1.59","5fd60b369aa1a548ed311af6","619531dcf66c91622fa1b861","619595fe4c3aa422809beede","949.0999999940395","","d","true","[[253,596],[567,436],[512,87],[163,32],[3,346]]","true","5","main_T2_Trial","d","img/Fire_Down_Target.gif","[""img/Fire_Up_Distractor.gif"",""img/Fire_Up_Distractor.gif"",""img/Fire_Up_Distractor.gif"",""img/Fire_Up_Distractor.gif"",""img/Fire_Up_Distractor.gif"",""img/Fire_Up_Distractor.gif"",""img/Fire_Up_Distractor.gif"",""img/Fire_Up_Distractor.gif"",""img/Fire_Up_Distractor.gif"",""img/Fire_Up_Distractor.gif"",""img/Fire_Up_Distractor.gif"",""img/Fire_Up_Distractor.gif""]","5","targetDown_distractorsUp"
"","","","","","html-keyboard-response","134","404012","0.0-14.0-0.0-0.60","5fd60b369aa1a548ed311af6","619531dcf66c91622fa1b861","619595fe4c3aa422809beede","null","","null","","","","","main_T1_ITI","","","","",""
"","","","","","visual-search-circle","135","406109","0.0-14.0-0.0-1.60","5fd60b369aa1a548ed311af6","619531dcf66c91622fa1b861","619595fe4c3aa422809beede","1074","","s","true","[[585,207],[436,32],[207,14],[32,163],[14,392],[163,567],[392,585],[567,436]]","false","8","main_T2_Trial","s","img/Fire_Down_Target.gif","[""img/Fire_Up_Distractor.gif"",""img/Fire_Up_Distractor.gif"",""img/Fire_Up_Distractor.gif"",""img/Fire_Up_Distractor.gif"",""img/Fire_Up_Distractor.gif"",""img/Fire_Up_Distractor.gif"",""img/Fire_Up_Distractor.gif"",""img/Fire_Up_Distractor.gif"",""img/Fire_Up_Distractor.gif"",""img/Fire_Up_Distractor.gif"",""img/Fire_Up_Distractor.gif"",""img/Fire_Up_Distractor.gif""]","8","targetDown_distractorsUp"
"","","","","","html-keyboard-response","136","406128","0.0-14.0-0.0-0.61","5fd60b369aa1a548ed311af6","619531dcf66c91622fa1b861","619595fe4c3aa422809beede","null","","null","","","","","main_T1_ITI","","","","",""
"","","","","","visual-search-circle","137","408311","0.0-14.0-0.0-1.61","5fd60b369aa1a548ed311af6","619531dcf66c91622fa1b861","619595fe4c3aa422809beede","1172.9000000059605","","d","true","[[346,596],[580,407],[533,111],[253,3],[19,192],[66,488]]","true","6","main_T2_Trial","d","img/Fire_Up_Target.gif","[""img/Fire_Down_Distractor.gif"",""img/Fire_Down_Distractor.gif"",""img/Fire_Down_Distractor.gif"",""img/Fire_Down_Distractor.gif"",""img/Fire_Down_Distractor.gif"",""img/Fire_Down_Distractor.gif"",""img/Fire_Down_Distractor.gif"",""img/Fire_Down_Distractor.gif"",""img/Fire_Down_Distractor.gif"",""img/Fire_Down_Distractor.gif"",""img/Fire_Down_Distractor.gif"",""img/Fire_Down_Distractor.gif""]","6","targetUp_distractorsDown"
"","","","","","html-keyboard-response","138","408318","0.0-14.0-0.0-0.62","5fd60b369aa1a548ed311af6","619531dcf66c91622fa1b861","619595fe4c3aa422809beede","null","","null","","","","","main_T1_ITI","","","","",""
"","","","","","visual-search-circle","139","410600","0.0-14.0-0.0-1.62","5fd60b369aa1a548ed311af6","619531dcf66c91622fa1b861","619595fe4c3aa422809beede","1266.7000000178814","","d","false","[[352,4],[35,159],[84,508],[431,569],[597,258]]","false","5","main_T2_Trial","s","img/Fire_Down_Target.gif","[""img/Fire_Up_Distractor.gif"",""img/Fire_Up_Distractor.gif"",""img/Fire_Up_Distractor.gif"",""img/Fire_Up_Distractor.gif"",""img/Fire_Up_Distractor.gif"",""img/Fire_Up_Distractor.gif"",""img/Fire_Up_Distractor.gif"",""img/Fire_Up_Distractor.gif"",""img/Fire_Up_Distractor.gif"",""img/Fire_Up_Distractor.gif"",""img/Fire_Up_Distractor.gif"",""img/Fire_Up_Distractor.gif""]","5","targetDown_distractorsUp"
"","","","","","html-keyboard-response","140","410623","0.0-14.0-0.0-0.63","5fd60b369aa1a548ed311af6","619531dcf66c91622fa1b861","619595fe4c3aa422809beede","null","","null","","","","","main_T1_ITI","","","","",""
"","","","","","visual-search-circle","141","412645","0.0-14.0-0.0-1.63","5fd60b369aa1a548ed311af6","619531dcf66c91622fa1b861","619595fe4c3aa422809beede","999.1999999880791","","d","true","[[187,21],[0,320],[227,591],[554,458],[529,107]]","true","5","main_T2_Trial","d","img/Fire_Up_Target.gif","[""img/Fire_Down_Distractor.gif"",""img/Fire_Down_Distractor.gif"",""img/Fire_Down_Distractor.gif"",""img/Fire_Down_Distractor.gif"",""img/Fire_Down_Distractor.gif"",""img/Fire_Down_Distractor.gif"",""img/Fire_Down_Distractor.gif"",""img/Fire_Down_Distractor.gif"",""img/Fire_Down_Distractor.gif"",""img/Fire_Down_Distractor.gif"",""img/Fire_Down_Distractor.gif"",""img/Fire_Down_Distractor.gif""]","5","targetUp_distractorsDown"
"","","","","","html-keyboard-response","142","412647","0.0-14.0-0.0-0.64","5fd60b369aa1a548ed311af6","619531dcf66c91622fa1b861","619595fe4c3aa422809beede","null","","null","","","","","main_T1_ITI","","","","",""
"","","","","","visual-search-circle","143","414635","0.0-14.0-0.0-1.64","5fd60b369aa1a548ed311af6","619531dcf66c91622fa1b861","619595fe4c3aa422809beede","973.3999999761581","","d","true","[[202,583],[460,553],[598,332],[511,86],[264,2],[45,141],[17,400]]","true","7","main_T2_Trial","d","img/Fire_Down_Target.gif","[""img/Fire_Up_Distractor.gif"",""img/Fire_Up_Distractor.gif"",""img/Fire_Up_Distractor.gif"",""img/Fire_Up_Distractor.gif"",""img/Fire_Up_Distractor.gif"",""img/Fire_Up_Distractor.gif"",""img/Fire_Up_Distractor.gif"",""img/Fire_Up_Distractor.gif"",""img/Fire_Up_Distractor.gif"",""img/Fire_Up_Distractor.gif"",""img/Fire_Up_Distractor.gif"",""img/Fire_Up_Distractor.gif""]","7","targetDown_distractorsUp"
"","","","","","html-keyboard-response","144","414637","0.0-14.0-0.0-0.65","5fd60b369aa1a548ed311af6","619531dcf66c91622fa1b861","619595fe4c3aa422809beede","null","","null","","","","","main_T1_ITI","","","","",""
"","","","","","visual-search-circle","145","416509","0.0-14.0-0.0-1.65","5fd60b369aa1a548ed311af6","619531dcf66c91622fa1b861","619595fe4c3aa422809beede","848.8000000119209","","d","true","[[440,564],[594,355],[526,103],[288,0],[58,122],[10,378],[180,575]]","true","7","main_T2_Trial","d","img/Fire_Down_Target.gif","[""img/Fire_Up_Distractor.gif"",""img/Fire_Up_Distractor.gif"",""img/Fire_Up_Distractor.gif"",""img/Fire_Up_Distractor.gif"",""img/Fire_Up_Distractor.gif"",""img/Fire_Up_Distractor.gif"",""img/Fire_Up_Distractor.gif"",""img/Fire_Up_Distractor.gif"",""img/Fire_Up_Distractor.gif"",""img/Fire_Up_Distractor.gif"",""img/Fire_Up_Distractor.gif"",""img/Fire_Up_Distractor.gif""]","7","targetDown_distractorsUp"
"","","","","","html-keyboard-response","146","416535","0.0-14.0-0.0-0.66","5fd60b369aa1a548ed311af6","619531dcf66c91622fa1b861","619595fe4c3aa422809beede","null","","null","","","","","main_T1_ITI","","","","",""
"","","","","","visual-search-circle","147","418248","0.0-14.0-0.0-1.66","5fd60b369aa1a548ed311af6","619531dcf66c91622fa1b861","619595fe4c3aa422809beede","691.7999999821186","","d","true","[[341,597],[597,258],[258,2],[2,341]]","true","4","main_T2_Trial","d","img/Fire_Down_Target.gif","[""img/Fire_Up_Distractor.gif"",""img/Fire_Up_Distractor.gif"",""img/Fire_Up_Distractor.gif"",""img/Fire_Up_Distractor.gif"",""img/Fire_Up_Distractor.gif"",""img/Fire_Up_Distractor.gif"",""img/Fire_Up_Distractor.gif"",""img/Fire_Up_Distractor.gif"",""img/Fire_Up_Distractor.gif"",""img/Fire_Up_Distractor.gif"",""img/Fire_Up_Distractor.gif"",""img/Fire_Up_Distractor.gif""]","4","targetDown_distractorsUp"
"","","","","","html-keyboard-response","148","418251","0.0-14.0-0.0-0.67","5fd60b369aa1a548ed311af6","619531dcf66c91622fa1b861","619595fe4c3aa422809beede","null","","null","","","","","main_T1_ITI","","","","",""
"","","","","","visual-search-circle","149","420443","0.0-14.0-0.0-1.67","5fd60b369aa1a548ed311af6","619531dcf66c91622fa1b861","619595fe4c3aa422809beede","1165.699999988079","","d","true","[[315,599],[522,500],[599,284],[500,77],[284,0],[77,99],[0,315],[99,522]]","true","8","main_T2_Trial","d","img/Fire_Down_Target.gif","[""img/Fire_Up_Distractor.gif"",""img/Fire_Up_Distractor.gif"",""img/Fire_Up_Distractor.gif"",""img/Fire_Up_Distractor.gif"",""img/Fire_Up_Distractor.gif"",""img/Fire_Up_Distractor.gif"",""img/Fire_Up_Distractor.gif"",""img/Fire_Up_Distractor.gif"",""img/Fire_Up_Distractor.gif"",""img/Fire_Up_Distractor.gif"",""img/Fire_Up_Distractor.gif"",""img/Fire_Up_Distractor.gif""]","8","targetDown_distractorsUp"
"","","","","","html-keyboard-response","150","420450","0.0-14.0-0.0-0.68","5fd60b369aa1a548ed311af6","619531dcf66c91622fa1b861","619595fe4c3aa422809beede","null","","null","","","","","main_T1_ITI","","","","",""
"","","","","","visual-search-circle","151","422758","0.0-14.0-0.0-1.68","5fd60b369aa1a548ed311af6","619531dcf66c91622fa1b861","619595fe4c3aa422809beede","1286.800000011921","","d","false","[[84,91],[11,382],[227,591],[515,508],[588,217],[372,8]]","false","6","main_T2_Trial","s","img/Fire_Up_Target.gif","[""img/Fire_Down_Distractor.gif"",""img/Fire_Down_Distractor.gif"",""img/Fire_Down_Distractor.gif"",""img/Fire_Down_Distractor.gif"",""img/Fire_Down_Distractor.gif"",""img/Fire_Down_Distractor.gif"",""img/Fire_Down_Distractor.gif"",""img/Fire_Down_Distractor.gif"",""img/Fire_Down_Distractor.gif"",""img/Fire_Down_Distractor.gif"",""img/Fire_Down_Distractor.gif"",""img/Fire_Down_Distractor.gif""]","6","targetUp_distractorsDown"
"","","","","","html-keyboard-response","152","422765","0.0-14.0-0.0-0.69","5fd60b369aa1a548ed311af6","619531dcf66c91622fa1b861","619595fe4c3aa422809beede","null","","null","","","","","main_T1_ITI","","","","",""
"","","","","","visual-search-circle","153","424692","0.0-14.0-0.0-1.69","5fd60b369aa1a548ed311af6","619531dcf66c91622fa1b861","619595fe4c3aa422809beede","907.0999999940395","","d","true","[[581,402],[484,63],[132,51],[11,382],[289,599]]","true","5","main_T2_Trial","d","img/Fire_Down_Target.gif","[""img/Fire_Up_Distractor.gif"",""img/Fire_Up_Distractor.gif"",""img/Fire_Up_Distractor.gif"",""img/Fire_Up_Distractor.gif"",""img/Fire_Up_Distractor.gif"",""img/Fire_Up_Distractor.gif"",""img/Fire_Up_Distractor.gif"",""img/Fire_Up_Distractor.gif"",""img/Fire_Up_Distractor.gif"",""img/Fire_Up_Distractor.gif"",""img/Fire_Up_Distractor.gif"",""img/Fire_Up_Distractor.gif""]","5","targetDown_distractorsUp"
"","","","","","html-keyboard-response","154","424701","0.0-14.0-0.0-0.70","5fd60b369aa1a548ed311af6","619531dcf66c91622fa1b861","619595fe4c3aa422809beede","null","","null","","","","","main_T1_ITI","","","","",""
"","","","","","visual-search-circle","155","427332","0.0-14.0-0.0-1.70","5fd60b369aa1a548ed311af6","619531dcf66c91622fa1b861","619595fe4c3aa422809beede","1604.5","","s","true","[[387,586],[578,410],[560,150],[345,3],[96,79],[0,321],[130,547]]","false","7","main_T2_Trial","s","img/Fire_Down_Target.gif","[""img/Fire_Up_Distractor.gif"",""img/Fire_Up_Distractor.gif"",""img/Fire_Up_Distractor.gif"",""img/Fire_Up_Distractor.gif"",""img/Fire_Up_Distractor.gif"",""img/Fire_Up_Distractor.gif"",""img/Fire_Up_Distractor.gif"",""img/Fire_Up_Distractor.gif"",""img/Fire_Up_Distractor.gif"",""img/Fire_Up_Distractor.gif"",""img/Fire_Up_Distractor.gif"",""img/Fire_Up_Distractor.gif""]","7","targetDown_distractorsUp"
"","","","","","html-keyboard-response","156","427334","0.0-14.0-0.0-0.71","5fd60b369aa1a548ed311af6","619531dcf66c91622fa1b861","619595fe4c3aa422809beede","null","","null","","","","","main_T1_ITI","","","","",""
"","","","","","visual-search-circle","157","430534","0.0-14.0-0.0-1.71","5fd60b369aa1a548ed311af6","619531dcf66c91622fa1b861","619595fe4c3aa422809beede","2177.699999988079","","d","true","[[141,45],[0,310],[159,564],[458,554],[599,289],[440,35]]","true","6","main_T2_Trial","d","img/Fire_Up_Target.gif","[""img/Fire_Down_Distractor.gif"",""img/Fire_Down_Distractor.gif"",""img/Fire_Down_Distractor.gif"",""img/Fire_Down_Distractor.gif"",""img/Fire_Down_Distractor.gif"",""img/Fire_Down_Distractor.gif"",""img/Fire_Down_Distractor.gif"",""img/Fire_Down_Distractor.gif"",""img/Fire_Down_Distractor.gif"",""img/Fire_Down_Distractor.gif"",""img/Fire_Down_Distractor.gif"",""img/Fire_Down_Distractor.gif""]","6","targetUp_distractorsDown"
"","","","","","html-keyboard-response","158","430537","0.0-14.0-0.0-0.72","5fd60b369aa1a548ed311af6","619531dcf66c91622fa1b861","619595fe4c3aa422809beede","null","","null","","","","","main_T1_ITI","","","","",""
"","","","","","visual-search-circle","159","432434","0.0-14.0-0.0-1.72","5fd60b369aa1a548ed311af6","619531dcf66c91622fa1b861","619595fe4c3aa422809beede","888.1999999880791","","d","true","[[227,8],[8,372],[372,591],[591,227]]","true","4","main_T2_Trial","d","img/Fire_Down_Target.gif","[""img/Fire_Up_Distractor.gif"",""img/Fire_Up_Distractor.gif"",""img/Fire_Up_Distractor.gif"",""img/Fire_Up_Distractor.gif"",""img/Fire_Up_Distractor.gif"",""img/Fire_Up_Distractor.gif"",""img/Fire_Up_Distractor.gif"",""img/Fire_Up_Distractor.gif"",""img/Fire_Up_Distractor.gif"",""img/Fire_Up_Distractor.gif"",""img/Fire_Up_Distractor.gif"",""img/Fire_Up_Distractor.gif""]","4","targetDown_distractorsUp"
"","","","","","html-keyboard-response","160","432437","0.0-14.0-0.0-0.73","5fd60b369aa1a548ed311af6","619531dcf66c91622fa1b861","619595fe4c3aa422809beede","null","","null","","","","","main_T1_ITI","","","","",""
"","","","","","visual-search-circle","161","438417","0.0-14.0-0.0-1.73","5fd60b369aa1a548ed311af6","619531dcf66c91622fa1b861","619595fe4c3aa422809beede","4950.5","","d","true","[[30,168],[16,397],[168,569],[397,583],[569,431],[583,202],[431,30],[202,16]]","true","8","main_T2_Trial","d","img/Fire_Up_Target.gif","[""img/Fire_Down_Distractor.gif"",""img/Fire_Down_Distractor.gif"",""img/Fire_Down_Distractor.gif"",""img/Fire_Down_Distractor.gif"",""img/Fire_Down_Distractor.gif"",""img/Fire_Down_Distractor.gif"",""img/Fire_Down_Distractor.gif"",""img/Fire_Down_Distractor.gif"",""img/Fire_Down_Distractor.gif"",""img/Fire_Down_Distractor.gif"",""img/Fire_Down_Distractor.gif"",""img/Fire_Down_Distractor.gif""]","8","targetUp_distractorsDown"
"","","","","","html-keyboard-response","162","438419","0.0-14.0-0.0-0.74","5fd60b369aa1a548ed311af6","619531dcf66c91622fa1b861","619595fe4c3aa422809beede","null","","null","","","","","main_T1_ITI","","","","",""
"","","","","","visual-search-circle","163","440815","0.0-14.0-0.0-1.74","5fd60b369aa1a548ed311af6","619531dcf66c91622fa1b861","619595fe4c3aa422809beede","1382.8999999761581","","d","true","[[392,585],[593,362],[500,77],[207,14],[6,237],[99,522]]","true","6","main_T2_Trial","d","img/Fire_Up_Target.gif","[""img/Fire_Down_Distractor.gif"",""img/Fire_Down_Distractor.gif"",""img/Fire_Down_Distractor.gif"",""img/Fire_Down_Distractor.gif"",""img/Fire_Down_Distractor.gif"",""img/Fire_Down_Distractor.gif"",""img/Fire_Down_Distractor.gif"",""img/Fire_Down_Distractor.gif"",""img/Fire_Down_Distractor.gif"",""img/Fire_Down_Distractor.gif"",""img/Fire_Down_Distractor.gif"",""img/Fire_Down_Distractor.gif""]","6","targetUp_distractorsDown"
"","","","","","html-keyboard-response","164","440817","0.0-14.0-0.0-0.75","5fd60b369aa1a548ed311af6","619531dcf66c91622fa1b861","619595fe4c3aa422809beede","null","","null","","","","","main_T1_ITI","","","","",""
"","","","","","visual-search-circle","165","443202","0.0-14.0-0.0-1.75","5fd60b369aa1a548ed311af6","619531dcf66c91622fa1b861","619595fe4c3aa422809beede","1360","","s","true","[[60,119],[2,341],[119,539],[341,597],[539,480],[597,258],[480,60],[258,2]]","false","8","main_T2_Trial","s","img/Fire_Down_Target.gif","[""img/Fire_Up_Distractor.gif"",""img/Fire_Up_Distractor.gif"",""img/Fire_Up_Distractor.gif"",""img/Fire_Up_Distractor.gif"",""img/Fire_Up_Distractor.gif"",""img/Fire_Up_Distractor.gif"",""img/Fire_Up_Distractor.gif"",""img/Fire_Up_Distractor.gif"",""img/Fire_Up_Distractor.gif"",""img/Fire_Up_Distractor.gif"",""img/Fire_Up_Distractor.gif"",""img/Fire_Up_Distractor.gif""]","8","targetDown_distractorsUp"
"","","","","","html-keyboard-response","166","443205","0.0-14.0-0.0-0.76","5fd60b369aa1a548ed311af6","619531dcf66c91622fa1b861","619595fe4c3aa422809beede","null","","null","","","","","main_T1_ITI","","","","",""
"","","","","","visual-search-circle","167","445142","0.0-14.0-0.0-1.76","5fd60b369aa1a548ed311af6","619531dcf66c91622fa1b861","619595fe4c3aa422809beede","925.2999999821186","","d","false","[[51,132],[132,548],[548,467],[467,51]]","false","4","main_T2_Trial","s","img/Fire_Down_Target.gif","[""img/Fire_Up_Distractor.gif"",""img/Fire_Up_Distractor.gif"",""img/Fire_Up_Distractor.gif"",""img/Fire_Up_Distractor.gif"",""img/Fire_Up_Distractor.gif"",""img/Fire_Up_Distractor.gif"",""img/Fire_Up_Distractor.gif"",""img/Fire_Up_Distractor.gif"",""img/Fire_Up_Distractor.gif"",""img/Fire_Up_Distractor.gif"",""img/Fire_Up_Distractor.gif"",""img/Fire_Up_Distractor.gif""]","4","targetDown_distractorsUp"
"","","","","","html-keyboard-response","168","445145","0.0-14.0-0.0-0.77","5fd60b369aa1a548ed311af6","619531dcf66c91622fa1b861","619595fe4c3aa422809beede","null","","null","","","","","main_T1_ITI","","","","",""
"","","","","","visual-search-circle","169","447210","0.0-14.0-0.0-1.77","5fd60b369aa1a548ed311af6","619531dcf66c91622fa1b861","619595fe4c3aa422809beede","1047","","d","true","[[336,597],[597,263],[263,2],[2,336]]","true","4","main_T2_Trial","d","img/Fire_Up_Target.gif","[""img/Fire_Down_Distractor.gif"",""img/Fire_Down_Distractor.gif"",""img/Fire_Down_Distractor.gif"",""img/Fire_Down_Distractor.gif"",""img/Fire_Down_Distractor.gif"",""img/Fire_Down_Distractor.gif"",""img/Fire_Down_Distractor.gif"",""img/Fire_Down_Distractor.gif"",""img/Fire_Down_Distractor.gif"",""img/Fire_Down_Distractor.gif"",""img/Fire_Down_Distractor.gif"",""img/Fire_Down_Distractor.gif""]","4","targetUp_distractorsDown"
"","","","","","html-keyboard-response","170","447218","0.0-14.0-0.0-0.78","5fd60b369aa1a548ed311af6","619531dcf66c91622fa1b861","619595fe4c3aa422809beede","null","","null","","","","","main_T1_ITI","","","","",""
"","","","","","visual-search-circle","171","449591","0.0-14.0-0.0-1.78","5fd60b369aa1a548ed311af6","619531dcf66c91622fa1b861","619595fe4c3aa422809beede","1354.5","","d","true","[[440,564],[564,159],[159,35],[35,440]]","true","4","main_T2_Trial","d","img/Fire_Up_Target.gif","[""img/Fire_Down_Distractor.gif"",""img/Fire_Down_Distractor.gif"",""img/Fire_Down_Distractor.gif"",""img/Fire_Down_Distractor.gif"",""img/Fire_Down_Distractor.gif"",""img/Fire_Down_Distractor.gif"",""img/Fire_Down_Distractor.gif"",""img/Fire_Down_Distractor.gif"",""img/Fire_Down_Distractor.gif"",""img/Fire_Down_Distractor.gif"",""img/Fire_Down_Distractor.gif"",""img/Fire_Down_Distractor.gif""]","4","targetUp_distractorsDown"
"","","","","","html-keyboard-response","172","450964","0.0-14.0-0.0-0.79","5fd60b369aa1a548ed311af6","619531dcf66c91622fa1b861","619595fe4c3aa422809beede","1372.699999988079","Wow! You've completed 80 out of 160 trials! </p> <p>  </p><p> Take a quick break, then press any key when you're ready to continue."," ","","","","","main_T1_ITI","","","","",""
"","","","","","visual-search-circle","173","453882","0.0-14.0-0.0-1.79","5fd60b369aa1a548ed311af6","619531dcf66c91622fa1b861","619595fe4c3aa422809beede","1900","","d","true","[[402,581],[584,395],[552,137],[329,1],[85,90],[2,337],[143,555]]","true","7","main_T2_Trial","d","img/Fire_Up_Target.gif","[""img/Fire_Down_Distractor.gif"",""img/Fire_Down_Distractor.gif"",""img/Fire_Down_Distractor.gif"",""img/Fire_Down_Distractor.gif"",""img/Fire_Down_Distractor.gif"",""img/Fire_Down_Distractor.gif"",""img/Fire_Down_Distractor.gif"",""img/Fire_Down_Distractor.gif"",""img/Fire_Down_Distractor.gif"",""img/Fire_Down_Distractor.gif"",""img/Fire_Down_Distractor.gif"",""img/Fire_Down_Distractor.gif""]","7","targetUp_distractorsDown"
"","","","","","html-keyboard-response","174","453885","0.0-14.0-0.0-0.80","5fd60b369aa1a548ed311af6","619531dcf66c91622fa1b861","619595fe4c3aa422809beede","null","","null","","","","","main_T1_ITI","","","","",""
"","","","","","visual-search-circle","175","456550","0.0-14.0-0.0-1.80","5fd60b369aa1a548ed311af6","619531dcf66c91622fa1b861","619595fe4c3aa422809beede","1647.2000000178814","","d","true","[[192,580],[451,558],[596,342],[518,94],[275,1],[50,132],[13,390]]","true","7","main_T2_Trial","d","img/Fire_Down_Target.gif","[""img/Fire_Up_Distractor.gif"",""img/Fire_Up_Distractor.gif"",""img/Fire_Up_Distractor.gif"",""img/Fire_Up_Distractor.gif"",""img/Fire_Up_Distractor.gif"",""img/Fire_Up_Distractor.gif"",""img/Fire_Up_Distractor.gif"",""img/Fire_Up_Distractor.gif"",""img/Fire_Up_Distractor.gif"",""img/Fire_Up_Distractor.gif"",""img/Fire_Up_Distractor.gif"",""img/Fire_Up_Distractor.gif""]","7","targetDown_distractorsUp"
"","","","","","html-keyboard-response","176","456556","0.0-14.0-0.0-0.81","5fd60b369aa1a548ed311af6","619531dcf66c91622fa1b861","619595fe4c3aa422809beede","null","","null","","","","","main_T1_ITI","","","","",""
"","","","","","visual-search-circle","177","458489","0.0-14.0-0.0-1.81","5fd60b369aa1a548ed311af6","619531dcf66c91622fa1b861","619595fe4c3aa422809beede","915.7999999821186","","d","true","[[397,583],[583,202],[202,16],[16,397]]","true","4","main_T2_Trial","d","img/Fire_Up_Target.gif","[""img/Fire_Down_Distractor.gif"",""img/Fire_Down_Distractor.gif"",""img/Fire_Down_Distractor.gif"",""img/Fire_Down_Distractor.gif"",""img/Fire_Down_Distractor.gif"",""img/Fire_Down_Distractor.gif"",""img/Fire_Down_Distractor.gif"",""img/Fire_Down_Distractor.gif"",""img/Fire_Down_Distractor.gif"",""img/Fire_Down_Distractor.gif"",""img/Fire_Down_Distractor.gif"",""img/Fire_Down_Distractor.gif""]","4","targetUp_distractorsDown"
"","","","","","html-keyboard-response","178","458491","0.0-14.0-0.0-0.82","5fd60b369aa1a548ed311af6","619531dcf66c91622fa1b861","619595fe4c3aa422809beede","null","","null","","","","","main_T1_ITI","","","","",""
"","","","","","visual-search-circle","179","462051","0.0-14.0-0.0-1.82","5fd60b369aa1a548ed311af6","619531dcf66c91622fa1b861","619595fe4c3aa422809beede","2542.0999999940395","","s","true","[[1,331],[177,574],[476,542],[598,268],[422,25],[123,57]]","false","6","main_T2_Trial","s","img/Fire_Down_Target.gif","[""img/Fire_Up_Distractor.gif"",""img/Fire_Up_Distractor.gif"",""img/Fire_Up_Distractor.gif"",""img/Fire_Up_Distractor.gif"",""img/Fire_Up_Distractor.gif"",""img/Fire_Up_Distractor.gif"",""img/Fire_Up_Distractor.gif"",""img/Fire_Up_Distractor.gif"",""img/Fire_Up_Distractor.gif"",""img/Fire_Up_Distractor.gif"",""img/Fire_Up_Distractor.gif"",""img/Fire_Up_Distractor.gif""]","6","targetDown_distractorsUp"
"","","","","","html-keyboard-response","180","462059","0.0-14.0-0.0-0.83","5fd60b369aa1a548ed311af6","619531dcf66c91622fa1b861","619595fe4c3aa422809beede","null","","null","","","","","main_T1_ITI","","","","",""
"","","","","","visual-search-circle","181","464519","0.0-14.0-0.0-1.83","5fd60b369aa1a548ed311af6","619531dcf66c91622fa1b861","619595fe4c3aa422809beede","1447.199999988079","","d","true","[[484,536],[536,115],[115,63],[63,484]]","true","4","main_T2_Trial","d","img/Fire_Up_Target.gif","[""img/Fire_Down_Distractor.gif"",""img/Fire_Down_Distractor.gif"",""img/Fire_Down_Distractor.gif"",""img/Fire_Down_Distractor.gif"",""img/Fire_Down_Distractor.gif"",""img/Fire_Down_Distractor.gif"",""img/Fire_Down_Distractor.gif"",""img/Fire_Down_Distractor.gif"",""img/Fire_Down_Distractor.gif"",""img/Fire_Down_Distractor.gif"",""img/Fire_Down_Distractor.gif"",""img/Fire_Down_Distractor.gif""]","4","targetUp_distractorsDown"
"","","","","","html-keyboard-response","182","464523","0.0-14.0-0.0-0.84","5fd60b369aa1a548ed311af6","619531dcf66c91622fa1b861","619595fe4c3aa422809beede","null","","null","","","","","main_T1_ITI","","","","",""
"","","","","","visual-search-circle","183","466477","0.0-14.0-0.0-1.84","5fd60b369aa1a548ed311af6","619531dcf66c91622fa1b861","619595fe4c3aa422809beede","929.9000000059605","","s","true","[[557,454],[581,195],[393,14],[135,49],[1,272],[92,516],[339,597]]","false","7","main_T2_Trial","s","img/Fire_Down_Target.gif","[""img/Fire_Up_Distractor.gif"",""img/Fire_Up_Distractor.gif"",""img/Fire_Up_Distractor.gif"",""img/Fire_Up_Distractor.gif"",""img/Fire_Up_Distractor.gif"",""img/Fire_Up_Distractor.gif"",""img/Fire_Up_Distractor.gif"",""img/Fire_Up_Distractor.gif"",""img/Fire_Up_Distractor.gif"",""img/Fire_Up_Distractor.gif"",""img/Fire_Up_Distractor.gif"",""img/Fire_Up_Distractor.gif""]","7","targetDown_distractorsUp"
"","","","","","html-keyboard-response","184","466489","0.0-14.0-0.0-0.85","5fd60b369aa1a548ed311af6","619531dcf66c91622fa1b861","619595fe4c3aa422809beede","null","","null","","","","","main_T1_ITI","","","","",""
"","","","","","visual-search-circle","185","468464","0.0-14.0-0.0-1.85","5fd60b369aa1a548ed311af6","619531dcf66c91622fa1b861","619595fe4c3aa422809beede","963.6999999880791","","d","true","[[217,11],[0,289],[197,581],[536,484],[548,132]]","true","5","main_T2_Trial","d","img/Fire_Down_Target.gif","[""img/Fire_Up_Distractor.gif"",""img/Fire_Up_Distractor.gif"",""img/Fire_Up_Distractor.gif"",""img/Fire_Up_Distractor.gif"",""img/Fire_Up_Distractor.gif"",""img/Fire_Up_Distractor.gif"",""img/Fire_Up_Distractor.gif"",""img/Fire_Up_Distractor.gif"",""img/Fire_Up_Distractor.gif"",""img/Fire_Up_Distractor.gif"",""img/Fire_Up_Distractor.gif"",""img/Fire_Up_Distractor.gif""]","5","targetDown_distractorsUp"
"","","","","","html-keyboard-response","186","468473","0.0-14.0-0.0-0.86","5fd60b369aa1a548ed311af6","619531dcf66c91622fa1b861","619595fe4c3aa422809beede","null","","null","","","","","main_T1_ITI","","","","",""
"","","","","","visual-search-circle","187","471660","0.0-14.0-0.0-1.86","5fd60b369aa1a548ed311af6","619531dcf66c91622fa1b861","619595fe4c3aa422809beede","2176.899999976158","","s","true","[[99,77],[25,422],[331,598],[593,362],[449,40]]","false","5","main_T2_Trial","s","img/Fire_Up_Target.gif","[""img/Fire_Down_Distractor.gif"",""img/Fire_Down_Distractor.gif"",""img/Fire_Down_Distractor.gif"",""img/Fire_Down_Distractor.gif"",""img/Fire_Down_Distractor.gif"",""img/Fire_Down_Distractor.gif"",""img/Fire_Down_Distractor.gif"",""img/Fire_Down_Distractor.gif"",""img/Fire_Down_Distractor.gif"",""img/Fire_Down_Distractor.gif"",""img/Fire_Down_Distractor.gif"",""img/Fire_Down_Distractor.gif""]","5","targetUp_distractorsDown"
"","","","","","html-keyboard-response","188","471672","0.0-14.0-0.0-0.87","5fd60b369aa1a548ed311af6","619531dcf66c91622fa1b861","619595fe4c3aa422809beede","null","","null","","","","","main_T1_ITI","","","","",""
"","","","","","visual-search-circle","189","473839","0.0-14.0-0.0-1.87","5fd60b369aa1a548ed311af6","619531dcf66c91622fa1b861","619595fe4c3aa422809beede","1156.7999999821186","","s","true","[[545,472],[571,173],[326,1],[54,127],[28,426],[273,598]]","false","6","main_T2_Trial","s","img/Fire_Up_Target.gif","[""img/Fire_Down_Distractor.gif"",""img/Fire_Down_Distractor.gif"",""img/Fire_Down_Distractor.gif"",""img/Fire_Down_Distractor.gif"",""img/Fire_Down_Distractor.gif"",""img/Fire_Down_Distractor.gif"",""img/Fire_Down_Distractor.gif"",""img/Fire_Down_Distractor.gif"",""img/Fire_Down_Distractor.gif"",""img/Fire_Down_Distractor.gif"",""img/Fire_Down_Distractor.gif"",""img/Fire_Down_Distractor.gif""]","6","targetUp_distractorsDown"
"","","","","","html-keyboard-response","190","473851","0.0-14.0-0.0-0.88","5fd60b369aa1a548ed311af6","619531dcf66c91622fa1b861","619595fe4c3aa422809beede","null","","null","","","","","main_T1_ITI","","","","",""
"","","","","","visual-search-circle","191","476095","0.0-14.0-0.0-1.88","5fd60b369aa1a548ed311af6","619531dcf66c91622fa1b861","619595fe4c3aa422809beede","1228.7000000178814","","s","true","[[545,472],[587,215],[413,22],[153,38],[3,251],[77,501],[318,599]]","false","7","main_T2_Trial","s","img/Fire_Up_Target.gif","[""img/Fire_Down_Distractor.gif"",""img/Fire_Down_Distractor.gif"",""img/Fire_Down_Distractor.gif"",""img/Fire_Down_Distractor.gif"",""img/Fire_Down_Distractor.gif"",""img/Fire_Down_Distractor.gif"",""img/Fire_Down_Distractor.gif"",""img/Fire_Down_Distractor.gif"",""img/Fire_Down_Distractor.gif"",""img/Fire_Down_Distractor.gif"",""img/Fire_Down_Distractor.gif"",""img/Fire_Down_Distractor.gif""]","7","targetUp_distractorsDown"
"","","","","","html-keyboard-response","192","476097","0.0-14.0-0.0-0.89","5fd60b369aa1a548ed311af6","619531dcf66c91622fa1b861","619595fe4c3aa422809beede","null","","null","","","","","main_T1_ITI","","","","",""
"","","","","","visual-search-circle","193","478188","0.0-14.0-0.0-1.89","5fd60b369aa1a548ed311af6","619531dcf66c91622fa1b861","619595fe4c3aa422809beede","1069.5","","d","true","[[0,315],[222,589],[551,463],[533,111],[192,19]]","true","5","main_T2_Trial","d","img/Fire_Up_Target.gif","[""img/Fire_Down_Distractor.gif"",""img/Fire_Down_Distractor.gif"",""img/Fire_Down_Distractor.gif"",""img/Fire_Down_Distractor.gif"",""img/Fire_Down_Distractor.gif"",""img/Fire_Down_Distractor.gif"",""img/Fire_Down_Distractor.gif"",""img/Fire_Down_Distractor.gif"",""img/Fire_Down_Distractor.gif"",""img/Fire_Down_Distractor.gif"",""img/Fire_Down_Distractor.gif"",""img/Fire_Down_Distractor.gif""]","5","targetUp_distractorsDown"
"","","","","","html-keyboard-response","194","478191","0.0-14.0-0.0-0.90","5fd60b369aa1a548ed311af6","619531dcf66c91622fa1b861","619595fe4c3aa422809beede","null","","null","","","","","main_T1_ITI","","","","",""
"","","","","","visual-search-circle","195","480109","0.0-14.0-0.0-1.90","5fd60b369aa1a548ed311af6","619531dcf66c91622fa1b861","619595fe4c3aa422809beede","896.6000000238419","","d","true","[[591,372],[557,145],[372,8],[145,42],[8,227],[42,454],[227,591],[454,557]]","true","8","main_T2_Trial","d","img/Fire_Up_Target.gif","[""img/Fire_Down_Distractor.gif"",""img/Fire_Down_Distractor.gif"",""img/Fire_Down_Distractor.gif"",""img/Fire_Down_Distractor.gif"",""img/Fire_Down_Distractor.gif"",""img/Fire_Down_Distractor.gif"",""img/Fire_Down_Distractor.gif"",""img/Fire_Down_Distractor.gif"",""img/Fire_Down_Distractor.gif"",""img/Fire_Down_Distractor.gif"",""img/Fire_Down_Distractor.gif"",""img/Fire_Down_Distractor.gif""]","8","targetUp_distractorsDown"
"","","","","","html-keyboard-response","196","480112","0.0-14.0-0.0-0.91","5fd60b369aa1a548ed311af6","619531dcf66c91622fa1b861","619595fe4c3aa422809beede","null","","null","","","","","main_T1_ITI","","","","",""
"","","","","","visual-search-circle","197","482064","0.0-14.0-0.0-1.91","5fd60b369aa1a548ed311af6","619531dcf66c91622fa1b861","619595fe4c3aa422809beede","936.3000000119209","","s","true","[[545,472],[595,247],[472,54],[247,4],[54,127],[4,352],[127,545],[352,595]]","false","8","main_T2_Trial","s","img/Fire_Up_Target.gif","[""img/Fire_Down_Distractor.gif"",""img/Fire_Down_Distractor.gif"",""img/Fire_Down_Distractor.gif"",""img/Fire_Down_Distractor.gif"",""img/Fire_Down_Distractor.gif"",""img/Fire_Down_Distractor.gif"",""img/Fire_Down_Distractor.gif"",""img/Fire_Down_Distractor.gif"",""img/Fire_Down_Distractor.gif"",""img/Fire_Down_Distractor.gif"",""img/Fire_Down_Distractor.gif"",""img/Fire_Down_Distractor.gif""]","8","targetUp_distractorsDown"
"","","","","","html-keyboard-response","198","482076","0.0-14.0-0.0-0.92","5fd60b369aa1a548ed311af6","619531dcf66c91622fa1b861","619595fe4c3aa422809beede","null","","null","","","","","main_T1_ITI","","","","",""
"","","","","","visual-search-circle","199","483973","0.0-14.0-0.0-1.92","5fd60b369aa1a548ed311af6","619531dcf66c91622fa1b861","619595fe4c3aa422809beede","882.7999999821186","","d","true","[[99,77],[25,422],[331,598],[593,362],[449,40]]","true","5","main_T2_Trial","d","img/Fire_Up_Target.gif","[""img/Fire_Down_Distractor.gif"",""img/Fire_Down_Distractor.gif"",""img/Fire_Down_Distractor.gif"",""img/Fire_Down_Distractor.gif"",""img/Fire_Down_Distractor.gif"",""img/Fire_Down_Distractor.gif"",""img/Fire_Down_Distractor.gif"",""img/Fire_Down_Distractor.gif"",""img/Fire_Down_Distractor.gif"",""img/Fire_Down_Distractor.gif"",""img/Fire_Down_Distractor.gif"",""img/Fire_Down_Distractor.gif""]","5","targetUp_distractorsDown"
"","","","","","html-keyboard-response","200","483974","0.0-14.0-0.0-0.93","5fd60b369aa1a548ed311af6","619531dcf66c91622fa1b861","619595fe4c3aa422809beede","null","","null","","","","","main_T1_ITI","","","","",""
"","","","","","visual-search-circle","201","485882","0.0-14.0-0.0-1.93","5fd60b369aa1a548ed311af6","619531dcf66c91622fa1b861","619595fe4c3aa422809beede","891.7999999821186","","s","true","[[0,284],[100,524],[351,595],[563,444],[576,184],[381,11],[125,55]]","false","7","main_T2_Trial","s","img/Fire_Up_Target.gif","[""img/Fire_Down_Distractor.gif"",""img/Fire_Down_Distractor.gif"",""img/Fire_Down_Distractor.gif"",""img/Fire_Down_Distractor.gif"",""img/Fire_Down_Distractor.gif"",""img/Fire_Down_Distractor.gif"",""img/Fire_Down_Distractor.gif"",""img/Fire_Down_Distractor.gif"",""img/Fire_Down_Distractor.gif"",""img/Fire_Down_Distractor.gif"",""img/Fire_Down_Distractor.gif"",""img/Fire_Down_Distractor.gif""]","7","targetUp_distractorsDown"
"","","","","","html-keyboard-response","202","485894","0.0-14.0-0.0-0.94","5fd60b369aa1a548ed311af6","619531dcf66c91622fa1b861","619595fe4c3aa422809beede","null","","null","","","","","main_T1_ITI","","","","",""
"","","","","","visual-search-circle","203","488595","0.0-14.0-0.0-1.94","5fd60b369aa1a548ed311af6","619531dcf66c91622fa1b861","619595fe4c3aa422809beede","1690.7999999821186","","d","true","[[18,402],[247,595],[529,492],[581,197],[352,4],[70,107]]","true","6","main_T2_Trial","d","img/Fire_Down_Target.gif","[""img/Fire_Up_Distractor.gif"",""img/Fire_Up_Distractor.gif"",""img/Fire_Up_Distractor.gif"",""img/Fire_Up_Distractor.gif"",""img/Fire_Up_Distractor.gif"",""img/Fire_Up_Distractor.gif"",""img/Fire_Up_Distractor.gif"",""img/Fire_Up_Distractor.gif"",""img/Fire_Up_Distractor.gif"",""img/Fire_Up_Distractor.gif"",""img/Fire_Up_Distractor.gif"",""img/Fire_Up_Distractor.gif""]","6","targetDown_distractorsUp"
"","","","","","html-keyboard-response","204","488599","0.0-14.0-0.0-0.95","5fd60b369aa1a548ed311af6","619531dcf66c91622fa1b861","619595fe4c3aa422809beede","null","","null","","","","","main_T1_ITI","","","","",""
"","","","","","visual-search-circle","205","490393","0.0-14.0-0.0-1.95","5fd60b369aa1a548ed311af6","619531dcf66c91622fa1b861","619595fe4c3aa422809beede","770.8999999761581","","s","false","[[595,352],[545,127],[352,4],[127,54],[4,247],[54,472],[247,595],[472,545]]","true","8","main_T2_Trial","d","img/Fire_Up_Target.gif","[""img/Fire_Down_Distractor.gif"",""img/Fire_Down_Distractor.gif"",""img/Fire_Down_Distractor.gif"",""img/Fire_Down_Distractor.gif"",""img/Fire_Down_Distractor.gif"",""img/Fire_Down_Distractor.gif"",""img/Fire_Down_Distractor.gif"",""img/Fire_Down_Distractor.gif"",""img/Fire_Down_Distractor.gif"",""img/Fire_Down_Distractor.gif"",""img/Fire_Down_Distractor.gif"",""img/Fire_Down_Distractor.gif""]","8","targetUp_distractorsDown"
"","","","","","html-keyboard-response","206","490410","0.0-14.0-0.0-0.96","5fd60b369aa1a548ed311af6","619531dcf66c91622fa1b861","619595fe4c3aa422809beede","null","","null","","","","","main_T1_ITI","","","","",""
"","","","","","visual-search-circle","207","492462","0.0-14.0-0.0-1.96","5fd60b369aa1a548ed311af6","619531dcf66c91622fa1b861","619595fe4c3aa422809beede","1041.2000000178814","","s","true","[[445,562],[595,349],[523,99],[282,0],[55,126],[11,383],[185,577]]","false","7","main_T2_Trial","s","img/Fire_Up_Target.gif","[""img/Fire_Down_Distractor.gif"",""img/Fire_Down_Distractor.gif"",""img/Fire_Down_Distractor.gif"",""img/Fire_Down_Distractor.gif"",""img/Fire_Down_Distractor.gif"",""img/Fire_Down_Distractor.gif"",""img/Fire_Down_Distractor.gif"",""img/Fire_Down_Distractor.gif"",""img/Fire_Down_Distractor.gif"",""img/Fire_Down_Distractor.gif"",""img/Fire_Down_Distractor.gif"",""img/Fire_Down_Distractor.gif""]","7","targetUp_distractorsDown"
"","","","","","html-keyboard-response","208","492465","0.0-14.0-0.0-0.97","5fd60b369aa1a548ed311af6","619531dcf66c91622fa1b861","619595fe4c3aa422809beede","null","","null","","","","","main_T1_ITI","","","","",""
"","","","","","visual-search-circle","209","494408","0.0-14.0-0.0-1.97","5fd60b369aa1a548ed311af6","619531dcf66c91622fa1b861","619595fe4c3aa422809beede","921.5","","d","true","[[450,559],[589,377],[559,150],[377,10],[150,40],[10,222],[40,449],[222,589]]","true","8","main_T2_Trial","d","img/Fire_Up_Target.gif","[""img/Fire_Down_Distractor.gif"",""img/Fire_Down_Distractor.gif"",""img/Fire_Down_Distractor.gif"",""img/Fire_Down_Distractor.gif"",""img/Fire_Down_Distractor.gif"",""img/Fire_Down_Distractor.gif"",""img/Fire_Down_Distractor.gif"",""img/Fire_Down_Distractor.gif"",""img/Fire_Down_Distractor.gif"",""img/Fire_Down_Distractor.gif"",""img/Fire_Down_Distractor.gif"",""img/Fire_Down_Distractor.gif""]","8","targetUp_distractorsDown"
"","","","","","html-keyboard-response","210","494411","0.0-14.0-0.0-0.98","5fd60b369aa1a548ed311af6","619531dcf66c91622fa1b861","619595fe4c3aa422809beede","null","","null","","","","","main_T1_ITI","","","","",""
"","","","","","visual-search-circle","211","496173","0.0-14.0-0.0-1.98","5fd60b369aa1a548ed311af6","619531dcf66c91622fa1b861","619595fe4c3aa422809beede","747.1999999880791","","s","true","[[51,467],[320,599],[569,431],[548,132],[279,0],[30,168]]","false","6","main_T2_Trial","s","img/Fire_Up_Target.gif","[""img/Fire_Down_Distractor.gif"",""img/Fire_Down_Distractor.gif"",""img/Fire_Down_Distractor.gif"",""img/Fire_Down_Distractor.gif"",""img/Fire_Down_Distractor.gif"",""img/Fire_Down_Distractor.gif"",""img/Fire_Down_Distractor.gif"",""img/Fire_Down_Distractor.gif"",""img/Fire_Down_Distractor.gif"",""img/Fire_Down_Distractor.gif"",""img/Fire_Down_Distractor.gif"",""img/Fire_Down_Distractor.gif""]","6","targetUp_distractorsDown"
"","","","","","html-keyboard-response","212","497261","0.0-14.0-0.0-0.99","5fd60b369aa1a548ed311af6","619531dcf66c91622fa1b861","619595fe4c3aa422809beede","1086.7000000178814","Wow! You've completed 100 out of 160 trials! </p> <p>  </p><p> Take a quick break, then press any key when you're ready to continue."," ","","","","","main_T1_ITI","","","","",""
"","","","","","visual-search-circle","213","500703","0.0-14.0-0.0-1.99","5fd60b369aa1a548ed311af6","619531dcf66c91622fa1b861","619595fe4c3aa422809beede","2428.0999999940395","","s","true","[[392,14],[14,207],[207,585],[585,392]]","false","4","main_T2_Trial","s","img/Fire_Down_Target.gif","[""img/Fire_Up_Distractor.gif"",""img/Fire_Up_Distractor.gif"",""img/Fire_Up_Distractor.gif"",""img/Fire_Up_Distractor.gif"",""img/Fire_Up_Distractor.gif"",""img/Fire_Up_Distractor.gif"",""img/Fire_Up_Distractor.gif"",""img/Fire_Up_Distractor.gif"",""img/Fire_Up_Distractor.gif"",""img/Fire_Up_Distractor.gif"",""img/Fire_Up_Distractor.gif"",""img/Fire_Up_Distractor.gif""]","4","targetDown_distractorsUp"
"","","","","","html-keyboard-response","214","500707","0.0-14.0-0.0-0.100","5fd60b369aa1a548ed311af6","619531dcf66c91622fa1b861","619595fe4c3aa422809beede","null","","null","","","","","main_T1_ITI","","","","",""
"","","","","","visual-search-circle","215","503149","0.0-14.0-0.0-1.100","5fd60b369aa1a548ed311af6","619531dcf66c91622fa1b861","619595fe4c3aa422809beede","1419.5999999940395","","s","true","[[73,496],[279,599],[496,526],[599,320],[526,103],[320,0],[103,73],[0,279]]","false","8","main_T2_Trial","s","img/Fire_Up_Target.gif","[""img/Fire_Down_Distractor.gif"",""img/Fire_Down_Distractor.gif"",""img/Fire_Down_Distractor.gif"",""img/Fire_Down_Distractor.gif"",""img/Fire_Down_Distractor.gif"",""img/Fire_Down_Distractor.gif"",""img/Fire_Down_Distractor.gif"",""img/Fire_Down_Distractor.gif"",""img/Fire_Down_Distractor.gif"",""img/Fire_Down_Distractor.gif"",""img/Fire_Down_Distractor.gif"",""img/Fire_Down_Distractor.gif""]","8","targetUp_distractorsDown"
