"success","timeout","failed_images","failed_audio","failed_video","trial_type","trial_index","time_elapsed","internal_node_id","subject_id","study_id","session_id","rt","stimulus","response","correct","locations","target_present","set_size","task","correct_response","target","foilCM","setSizeCM","searchCondition"
"true","false","[]","[]","[]","preload","0","7855","0.0-0.0","5fe5a68fe7a1d236fe7b4261","619531dcf66c91622fa1b861","61959567fd572d00df6428a7","","","","","","","","","","","","",""
"true","","","","","fullscreen","1","12955","0.0-1.0","5fe5a68fe7a1d236fe7b4261","619531dcf66c91622fa1b861","61959567fd572d00df6428a7","","","","","","","","","","","","",""
"","","","","","html-keyboard-response","2","23735","0.0-2.0","5fe5a68fe7a1d236fe7b4261","619531dcf66c91622fa1b861","61959567fd572d00df6428a7","10777.800000190735","What a beautiful Thursday to do some awesome science! </p> <p>  </p><p> </p>
    By completing this survey or questionnaire, you are consenting to be in this research study. </p>
    Your participation is voluntary and you can stop at any time.
    <p> [Press any key to continue.] </p>
    
    ","enter","","","","","","","","","",""
"","","","","","video-keyboard-response","3","65698","0.0-3.0","5fe5a68fe7a1d236fe7b4261","619531dcf66c91622fa1b861","61959567fd572d00df6428a7","41959.20000076294","[""video/TaskInstructions.mp4""]"," ","","","","","","","","","",""
"","","","","","html-keyboard-response","4","75420","0.0-4.0","5fe5a68fe7a1d236fe7b4261","619531dcf66c91622fa1b861","61959567fd572d00df6428a7","9717.5","
    <p>First, we're going to do a few practice trials to make sure you understand the task. You will recieve feedback on each trial. </p>
    <p>[Press any key to begin the familiarization phase.]</p>
    "," ","","","","","","","","","",""
"","","","","","visual-search-circle","5","79542","0.0-5.0-0.0","5fe5a68fe7a1d236fe7b4261","619531dcf66c91622fa1b861","61959567fd572d00df6428a7","3035.3999996185303","","s","false","[[326,1],[1,273],[273,598],[598,326]]","true","4","training","d","","","",""
"","","","","","html-keyboard-response","6","88080","0.0-6.0","5fe5a68fe7a1d236fe7b4261","619531dcf66c91622fa1b861","61959567fd572d00df6428a7","8536.400000572205"," <div style='float: center;'><img src='img/feedbackWrong.png'></img> </div> "," ","","","","","","","","","",""
"","","","","","visual-search-circle","7","92500","0.0-7.0-0.0","5fe5a68fe7a1d236fe7b4261","619531dcf66c91622fa1b861","61959567fd572d00df6428a7","3408","","s","true","[[268,598],[598,331],[331,1],[1,268]]","false","4","training","s","","","",""
"","","","","","html-keyboard-response","8","97644","0.0-8.0","5fe5a68fe7a1d236fe7b4261","619531dcf66c91622fa1b861","61959567fd572d00df6428a7","5141.900000572205"," <div style='float: center; '><img src='img/feedbackRight.png'></img> </div> "," ","","","","","","","","","",""
"","","","","","visual-search-circle","9","101503","0.0-9.0-0.0","5fe5a68fe7a1d236fe7b4261","619531dcf66c91622fa1b861","61959567fd572d00df6428a7","2846.1000003814697","","s","true","[[426,28],[127,54],[1,326],[173,571],[472,545],[598,273]]","false","6","training","s","","","",""
"","","","","","html-keyboard-response","10","103421","0.0-10.0","5fe5a68fe7a1d236fe7b4261","619531dcf66c91622fa1b861","61959567fd572d00df6428a7","1916.2999992370605"," <div style='float: center; '><img src='img/feedbackRight.png'></img> </div> "," ","","","","","","","","","",""
"","","","","","visual-search-circle","11","106660","0.0-11.0-0.0","5fe5a68fe7a1d236fe7b4261","619531dcf66c91622fa1b861","61959567fd572d00df6428a7","2219.1000003814697","","s","false","[[87,512],[299,600],[512,512],[600,300],[512,87],[300,0],[87,87],[0,299]]","true","8","training","d","","","",""
"","","","","","html-keyboard-response","12","109831","0.0-12.0","5fe5a68fe7a1d236fe7b4261","619531dcf66c91622fa1b861","61959567fd572d00df6428a7","3169.0999994277954"," <div style='float: center;'><img src='img/feedbackWrong.png'></img> </div> "," ","","","","","","","","","",""
"","","","","","video-keyboard-response","13","117480","0.0-13.0","5fe5a68fe7a1d236fe7b4261","619531dcf66c91622fa1b861","61959567fd572d00df6428a7","7646.89999961853","[""video/endTraining.mp4""]"," ","","","","","","","","","",""
"","","","","","html-keyboard-response","14","117485","0.0-14.0-0.0-0.0","5fe5a68fe7a1d236fe7b4261","619531dcf66c91622fa1b861","61959567fd572d00df6428a7","null","","null","","","","","main_T1_ITI","","","","",""
"","","","","","visual-search-circle","15","121573","0.0-14.0-0.0-1.0","5fe5a68fe7a1d236fe7b4261","619531dcf66c91622fa1b861","61959567fd572d00df6428a7","3063.699999809265","","s","true","[[232,7],[29,170],[30,430],[233,592],[487,534],[599,299],[486,64]]","false","7","main_T2_Trial","s","img/Fire_Up_Target.gif","[""img/Fire_Down_Distractor.gif"",""img/Fire_Down_Distractor.gif"",""img/Fire_Down_Distractor.gif"",""img/Fire_Down_Distractor.gif"",""img/Fire_Down_Distractor.gif"",""img/Fire_Down_Distractor.gif"",""img/Fire_Down_Distractor.gif"",""img/Fire_Down_Distractor.gif"",""img/Fire_Down_Distractor.gif"",""img/Fire_Down_Distractor.gif"",""img/Fire_Down_Distractor.gif"",""img/Fire_Down_Distractor.gif""]","7","targetUp_distractorsDown"
"","","","","","html-keyboard-response","16","121599","0.0-14.0-0.0-0.1","5fe5a68fe7a1d236fe7b4261","619531dcf66c91622fa1b861","61959567fd572d00df6428a7","null","","null","","","","","main_T1_ITI","","","","",""
"","","","","","visual-search-circle","17","124569","0.0-14.0-0.0-1.1","5fe5a68fe7a1d236fe7b4261","619531dcf66c91622fa1b861","61959567fd572d00df6428a7","1951.6999998092651","","d","true","[[576,417],[563,157],[352,4],[102,74],[0,314],[124,543],[380,588]]","true","7","main_T2_Trial","d","img/Fire_Up_Target.gif","[""img/Fire_Down_Distractor.gif"",""img/Fire_Down_Distractor.gif"",""img/Fire_Down_Distractor.gif"",""img/Fire_Down_Distractor.gif"",""img/Fire_Down_Distractor.gif"",""img/Fire_Down_Distractor.gif"",""img/Fire_Down_Distractor.gif"",""img/Fire_Down_Distractor.gif"",""img/Fire_Down_Distractor.gif"",""img/Fire_Down_Distractor.gif"",""img/Fire_Down_Distractor.gif"",""img/Fire_Down_Distractor.gif""]","7","targetUp_distractorsDown"
"","","","","","html-keyboard-response","18","124571","0.0-14.0-0.0-0.2","5fe5a68fe7a1d236fe7b4261","619531dcf66c91622fa1b861","61959567fd572d00df6428a7","null","","null","","","","","main_T1_ITI","","","","",""
"","","","","","visual-search-circle","19","129596","0.0-14.0-0.0-1.2","5fe5a68fe7a1d236fe7b4261","619531dcf66c91622fa1b861","61959567fd572d00df6428a7","4010.800000190735","","s","false","[[500,77],[207,14],[6,237],[99,522],[392,585],[593,362]]","true","6","main_T2_Trial","d","img/Fire_Up_Target.gif","[""img/Fire_Down_Distractor.gif"",""img/Fire_Down_Distractor.gif"",""img/Fire_Down_Distractor.gif"",""img/Fire_Down_Distractor.gif"",""img/Fire_Down_Distractor.gif"",""img/Fire_Down_Distractor.gif"",""img/Fire_Down_Distractor.gif"",""img/Fire_Down_Distractor.gif"",""img/Fire_Down_Distractor.gif"",""img/Fire_Down_Distractor.gif"",""img/Fire_Down_Distractor.gif"",""img/Fire_Down_Distractor.gif""]","6","targetUp_distractorsDown"
"","","","","","html-keyboard-response","20","129615","0.0-14.0-0.0-0.3","5fe5a68fe7a1d236fe7b4261","619531dcf66c91622fa1b861","61959567fd572d00df6428a7","null","","null","","","","","main_T1_ITI","","","","",""
"","","","","","visual-search-circle","21","132447","0.0-14.0-0.0-1.3","5fe5a68fe7a1d236fe7b4261","619531dcf66c91622fa1b861","61959567fd572d00df6428a7","1819","","d","true","[[279,599],[496,526],[599,320],[526,103],[320,0],[103,73],[0,279],[73,496]]","true","8","main_T2_Trial","d","img/Fire_Down_Target.gif","[""img/Fire_Up_Distractor.gif"",""img/Fire_Up_Distractor.gif"",""img/Fire_Up_Distractor.gif"",""img/Fire_Up_Distractor.gif"",""img/Fire_Up_Distractor.gif"",""img/Fire_Up_Distractor.gif"",""img/Fire_Up_Distractor.gif"",""img/Fire_Up_Distractor.gif"",""img/Fire_Up_Distractor.gif"",""img/Fire_Up_Distractor.gif"",""img/Fire_Up_Distractor.gif"",""img/Fire_Up_Distractor.gif""]","8","targetDown_distractorsUp"
"","","","","","html-keyboard-response","22","132449","0.0-14.0-0.0-0.4","5fe5a68fe7a1d236fe7b4261","619531dcf66c91622fa1b861","61959567fd572d00df6428a7","null","","null","","","","","main_T1_ITI","","","","",""
"","","","","","visual-search-circle","23","135231","0.0-14.0-0.0-1.4","5fe5a68fe7a1d236fe7b4261","619531dcf66c91622fa1b861","61959567fd572d00df6428a7","1768.5","","s","true","[[115,63],[2,341],[187,578],[484,536],[597,258],[412,21]]","false","6","main_T2_Trial","s","img/Fire_Up_Target.gif","[""img/Fire_Down_Distractor.gif"",""img/Fire_Down_Distractor.gif"",""img/Fire_Down_Distractor.gif"",""img/Fire_Down_Distractor.gif"",""img/Fire_Down_Distractor.gif"",""img/Fire_Down_Distractor.gif"",""img/Fire_Down_Distractor.gif"",""img/Fire_Down_Distractor.gif"",""img/Fire_Down_Distractor.gif"",""img/Fire_Down_Distractor.gif"",""img/Fire_Down_Distractor.gif"",""img/Fire_Down_Distractor.gif""]","6","targetUp_distractorsDown"
"","","","","","html-keyboard-response","24","135233","0.0-14.0-0.0-0.5","5fe5a68fe7a1d236fe7b4261","619531dcf66c91622fa1b861","61959567fd572d00df6428a7","null","","null","","","","","main_T1_ITI","","","","",""
"","","","","","visual-search-circle","25","137755","0.0-14.0-0.0-1.5","5fe5a68fe7a1d236fe7b4261","619531dcf66c91622fa1b861","61959567fd572d00df6428a7","1507.1999998092651","","s","true","[[362,593],[598,331],[422,25],[77,99],[40,449]]","false","5","main_T2_Trial","s","img/Fire_Down_Target.gif","[""img/Fire_Up_Distractor.gif"",""img/Fire_Up_Distractor.gif"",""img/Fire_Up_Distractor.gif"",""img/Fire_Up_Distractor.gif"",""img/Fire_Up_Distractor.gif"",""img/Fire_Up_Distractor.gif"",""img/Fire_Up_Distractor.gif"",""img/Fire_Up_Distractor.gif"",""img/Fire_Up_Distractor.gif"",""img/Fire_Up_Distractor.gif"",""img/Fire_Up_Distractor.gif"",""img/Fire_Up_Distractor.gif""]","5","targetDown_distractorsUp"
"","","","","","html-keyboard-response","26","137766","0.0-14.0-0.0-0.6","5fe5a68fe7a1d236fe7b4261","619531dcf66c91622fa1b861","61959567fd572d00df6428a7","null","","null","","","","","main_T1_ITI","","","","",""
"","","","","","visual-search-circle","27","140895","0.0-14.0-0.0-1.6","5fe5a68fe7a1d236fe7b4261","619531dcf66c91622fa1b861","61959567fd572d00df6428a7","2105.2000007629395","","s","true","[[331,598],[574,422],[542,123],[268,1],[25,177],[57,476]]","false","6","main_T2_Trial","s","img/Fire_Down_Target.gif","[""img/Fire_Up_Distractor.gif"",""img/Fire_Up_Distractor.gif"",""img/Fire_Up_Distractor.gif"",""img/Fire_Up_Distractor.gif"",""img/Fire_Up_Distractor.gif"",""img/Fire_Up_Distractor.gif"",""img/Fire_Up_Distractor.gif"",""img/Fire_Up_Distractor.gif"",""img/Fire_Up_Distractor.gif"",""img/Fire_Up_Distractor.gif"",""img/Fire_Up_Distractor.gif"",""img/Fire_Up_Distractor.gif""]","6","targetDown_distractorsUp"
"","","","","","html-keyboard-response","28","140931","0.0-14.0-0.0-0.7","5fe5a68fe7a1d236fe7b4261","619531dcf66c91622fa1b861","61959567fd572d00df6428a7","null","","null","","","","","main_T1_ITI","","","","",""
"","","","","","visual-search-circle","29","144818","0.0-14.0-0.0-1.7","5fe5a68fe7a1d236fe7b4261","619531dcf66c91622fa1b861","61959567fd572d00df6428a7","2870.199999809265","","s","true","[[149,559],[409,579],[586,388],[547,131],[322,0],[80,95],[3,344]]","false","7","main_T2_Trial","s","img/Fire_Down_Target.gif","[""img/Fire_Up_Distractor.gif"",""img/Fire_Up_Distractor.gif"",""img/Fire_Up_Distractor.gif"",""img/Fire_Up_Distractor.gif"",""img/Fire_Up_Distractor.gif"",""img/Fire_Up_Distractor.gif"",""img/Fire_Up_Distractor.gif"",""img/Fire_Up_Distractor.gif"",""img/Fire_Up_Distractor.gif"",""img/Fire_Up_Distractor.gif"",""img/Fire_Up_Distractor.gif"",""img/Fire_Up_Distractor.gif""]","7","targetDown_distractorsUp"
"","","","","","html-keyboard-response","30","144824","0.0-14.0-0.0-0.8","5fe5a68fe7a1d236fe7b4261","619531dcf66c91622fa1b861","61959567fd572d00df6428a7","null","","null","","","","","main_T1_ITI","","","","",""
"","","","","","visual-search-circle","31","148244","0.0-14.0-0.0-1.8","5fe5a68fe7a1d236fe7b4261","619531dcf66c91622fa1b861","61959567fd572d00df6428a7","2403","","s","true","[[372,591],[572,424],[567,164],[360,6],[108,69],[0,305],[117,538]]","false","7","main_T2_Trial","s","img/Fire_Down_Target.gif","[""img/Fire_Up_Distractor.gif"",""img/Fire_Up_Distractor.gif"",""img/Fire_Up_Distractor.gif"",""img/Fire_Up_Distractor.gif"",""img/Fire_Up_Distractor.gif"",""img/Fire_Up_Distractor.gif"",""img/Fire_Up_Distractor.gif"",""img/Fire_Up_Distractor.gif"",""img/Fire_Up_Distractor.gif"",""img/Fire_Up_Distractor.gif"",""img/Fire_Up_Distractor.gif"",""img/Fire_Up_Distractor.gif""]","7","targetDown_distractorsUp"
"","","","","","html-keyboard-response","32","148247","0.0-14.0-0.0-0.9","5fe5a68fe7a1d236fe7b4261","619531dcf66c91622fa1b861","61959567fd572d00df6428a7","null","","null","","","","","main_T1_ITI","","","","",""
"","","","","","visual-search-circle","33","151973","0.0-14.0-0.0-1.9","5fe5a68fe7a1d236fe7b4261","619531dcf66c91622fa1b861","61959567fd572d00df6428a7","2702.8999996185303","","s","true","[[480,60],[225,9],[26,177],[33,437],[241,594],[493,529],[599,291]]","false","7","main_T2_Trial","s","img/Fire_Down_Target.gif","[""img/Fire_Up_Distractor.gif"",""img/Fire_Up_Distractor.gif"",""img/Fire_Up_Distractor.gif"",""img/Fire_Up_Distractor.gif"",""img/Fire_Up_Distractor.gif"",""img/Fire_Up_Distractor.gif"",""img/Fire_Up_Distractor.gif"",""img/Fire_Up_Distractor.gif"",""img/Fire_Up_Distractor.gif"",""img/Fire_Up_Distractor.gif"",""img/Fire_Up_Distractor.gif"",""img/Fire_Up_Distractor.gif""]","7","targetDown_distractorsUp"
"","","","","","html-keyboard-response","34","151976","0.0-14.0-0.0-0.10","5fe5a68fe7a1d236fe7b4261","619531dcf66c91622fa1b861","61959567fd572d00df6428a7","null","","null","","","","","main_T1_ITI","","","","",""
"","","","","","visual-search-circle","35","155943","0.0-14.0-0.0-1.10","5fe5a68fe7a1d236fe7b4261","619531dcf66c91622fa1b861","61959567fd572d00df6428a7","2949.8999996185303","","s","true","[[237,593],[490,531],[599,295],[483,62],[228,8],[27,173],[31,434]]","false","7","main_T2_Trial","s","img/Fire_Up_Target.gif","[""img/Fire_Down_Distractor.gif"",""img/Fire_Down_Distractor.gif"",""img/Fire_Down_Distractor.gif"",""img/Fire_Down_Distractor.gif"",""img/Fire_Down_Distractor.gif"",""img/Fire_Down_Distractor.gif"",""img/Fire_Down_Distractor.gif"",""img/Fire_Down_Distractor.gif"",""img/Fire_Down_Distractor.gif"",""img/Fire_Down_Distractor.gif"",""img/Fire_Down_Distractor.gif"",""img/Fire_Down_Distractor.gif""]","7","targetUp_distractorsDown"
"","","","","","html-keyboard-response","36","155945","0.0-14.0-0.0-0.11","5fe5a68fe7a1d236fe7b4261","619531dcf66c91622fa1b861","61959567fd572d00df6428a7","null","","null","","","","","main_T1_ITI","","","","",""
"","","","","","visual-search-circle","37","158413","0.0-14.0-0.0-1.11","5fe5a68fe7a1d236fe7b4261","619531dcf66c91622fa1b861","61959567fd572d00df6428a7","1446.8999996185303","","s","true","[[454,42],[42,145],[145,557],[557,454]]","false","4","main_T2_Trial","s","img/Fire_Up_Target.gif","[""img/Fire_Down_Distractor.gif"",""img/Fire_Down_Distractor.gif"",""img/Fire_Down_Distractor.gif"",""img/Fire_Down_Distractor.gif"",""img/Fire_Down_Distractor.gif"",""img/Fire_Down_Distractor.gif"",""img/Fire_Down_Distractor.gif"",""img/Fire_Down_Distractor.gif"",""img/Fire_Down_Distractor.gif"",""img/Fire_Down_Distractor.gif"",""img/Fire_Down_Distractor.gif"",""img/Fire_Down_Distractor.gif""]","4","targetUp_distractorsDown"
"","","","","","html-keyboard-response","38","158424","0.0-14.0-0.0-0.12","5fe5a68fe7a1d236fe7b4261","619531dcf66c91622fa1b861","61959567fd572d00df6428a7","null","","null","","","","","main_T1_ITI","","","","",""
"","","","","","visual-search-circle","39","160722","0.0-14.0-0.0-1.12","5fe5a68fe7a1d236fe7b4261","619531dcf66c91622fa1b861","61959567fd572d00df6428a7","1274.1000003814697","","d","true","[[19,192],[41,451],[257,596],[505,518],[598,275],[467,50],[209,13]]","true","7","main_T2_Trial","d","img/Fire_Down_Target.gif","[""img/Fire_Up_Distractor.gif"",""img/Fire_Up_Distractor.gif"",""img/Fire_Up_Distractor.gif"",""img/Fire_Up_Distractor.gif"",""img/Fire_Up_Distractor.gif"",""img/Fire_Up_Distractor.gif"",""img/Fire_Up_Distractor.gif"",""img/Fire_Up_Distractor.gif"",""img/Fire_Up_Distractor.gif"",""img/Fire_Up_Distractor.gif"",""img/Fire_Up_Distractor.gif"",""img/Fire_Up_Distractor.gif""]","7","targetDown_distractorsUp"
"","","","","","html-keyboard-response","40","160732","0.0-14.0-0.0-0.13","5fe5a68fe7a1d236fe7b4261","619531dcf66c91622fa1b861","61959567fd572d00df6428a7","null","","null","","","","","main_T1_ITI","","","","",""
"","","","","","visual-search-circle","41","164553","0.0-14.0-0.0-1.13","5fe5a68fe7a1d236fe7b4261","619531dcf66c91622fa1b861","61959567fd572d00df6428a7","2807.0999994277954","","d","true","[[237,6],[48,136],[6,362],[136,551],[362,593],[551,463],[593,237],[463,48]]","true","8","main_T2_Trial","d","img/Fire_Down_Target.gif","[""img/Fire_Up_Distractor.gif"",""img/Fire_Up_Distractor.gif"",""img/Fire_Up_Distractor.gif"",""img/Fire_Up_Distractor.gif"",""img/Fire_Up_Distractor.gif"",""img/Fire_Up_Distractor.gif"",""img/Fire_Up_Distractor.gif"",""img/Fire_Up_Distractor.gif"",""img/Fire_Up_Distractor.gif"",""img/Fire_Up_Distractor.gif"",""img/Fire_Up_Distractor.gif"",""img/Fire_Up_Distractor.gif""]","8","targetDown_distractorsUp"
"","","","","","html-keyboard-response","42","164555","0.0-14.0-0.0-0.14","5fe5a68fe7a1d236fe7b4261","619531dcf66c91622fa1b861","61959567fd572d00df6428a7","null","","null","","","","","main_T1_ITI","","","","",""
"","","","","","visual-search-circle","43","171127","0.0-14.0-0.0-1.14","5fe5a68fe7a1d236fe7b4261","619531dcf66c91622fa1b861","61959567fd572d00df6428a7","5559","","d","true","[[173,571],[433,568],[593,363],[532,110],[296,0],[63,115],[8,370]]","true","7","main_T2_Trial","d","img/Fire_Up_Target.gif","[""img/Fire_Down_Distractor.gif"",""img/Fire_Down_Distractor.gif"",""img/Fire_Down_Distractor.gif"",""img/Fire_Down_Distractor.gif"",""img/Fire_Down_Distractor.gif"",""img/Fire_Down_Distractor.gif"",""img/Fire_Down_Distractor.gif"",""img/Fire_Down_Distractor.gif"",""img/Fire_Down_Distractor.gif"",""img/Fire_Down_Distractor.gif"",""img/Fire_Down_Distractor.gif"",""img/Fire_Down_Distractor.gif""]","7","targetUp_distractorsDown"
"","","","","","html-keyboard-response","44","171148","0.0-14.0-0.0-0.15","5fe5a68fe7a1d236fe7b4261","619531dcf66c91622fa1b861","61959567fd572d00df6428a7","null","","null","","","","","main_T1_ITI","","","","",""
"","","","","","visual-search-circle","45","174467","0.0-14.0-0.0-1.15","5fe5a68fe7a1d236fe7b4261","619531dcf66c91622fa1b861","61959567fd572d00df6428a7","2299.699999809265","","s","true","[[526,496],[496,73],[73,103],[103,526]]","false","4","main_T2_Trial","s","img/Fire_Up_Target.gif","[""img/Fire_Down_Distractor.gif"",""img/Fire_Down_Distractor.gif"",""img/Fire_Down_Distractor.gif"",""img/Fire_Down_Distractor.gif"",""img/Fire_Down_Distractor.gif"",""img/Fire_Down_Distractor.gif"",""img/Fire_Down_Distractor.gif"",""img/Fire_Down_Distractor.gif"",""img/Fire_Down_Distractor.gif"",""img/Fire_Down_Distractor.gif"",""img/Fire_Down_Distractor.gif"",""img/Fire_Down_Distractor.gif""]","4","targetUp_distractorsDown"
"","","","","","html-keyboard-response","46","174469","0.0-14.0-0.0-0.16","5fe5a68fe7a1d236fe7b4261","619531dcf66c91622fa1b861","61959567fd572d00df6428a7","null","","null","","","","","main_T1_ITI","","","","",""
"","","","","","visual-search-circle","47","178058","0.0-14.0-0.0-1.16","5fe5a68fe7a1d236fe7b4261","619531dcf66c91622fa1b861","61959567fd572d00df6428a7","2566.5999994277954","","s","true","[[336,2],[28,173],[95,519],[445,562],[594,242]]","false","5","main_T2_Trial","s","img/Fire_Down_Target.gif","[""img/Fire_Up_Distractor.gif"",""img/Fire_Up_Distractor.gif"",""img/Fire_Up_Distractor.gif"",""img/Fire_Up_Distractor.gif"",""img/Fire_Up_Distractor.gif"",""img/Fire_Up_Distractor.gif"",""img/Fire_Up_Distractor.gif"",""img/Fire_Up_Distractor.gif"",""img/Fire_Up_Distractor.gif"",""img/Fire_Up_Distractor.gif"",""img/Fire_Up_Distractor.gif"",""img/Fire_Up_Distractor.gif""]","5","targetDown_distractorsUp"
"","","","","","html-keyboard-response","48","178060","0.0-14.0-0.0-0.17","5fe5a68fe7a1d236fe7b4261","619531dcf66c91622fa1b861","61959567fd572d00df6428a7","null","","null","","","","","main_T1_ITI","","","","",""
"","","","","","visual-search-circle","49","182013","0.0-14.0-0.0-1.17","5fe5a68fe7a1d236fe7b4261","619531dcf66c91622fa1b861","61959567fd572d00df6428a7","2940.1000003814697","","s","true","[[66,111],[7,364],[167,569],[428,571],[591,368],[535,114],[302,0]]","false","7","main_T2_Trial","s","img/Fire_Down_Target.gif","[""img/Fire_Up_Distractor.gif"",""img/Fire_Up_Distractor.gif"",""img/Fire_Up_Distractor.gif"",""img/Fire_Up_Distractor.gif"",""img/Fire_Up_Distractor.gif"",""img/Fire_Up_Distractor.gif"",""img/Fire_Up_Distractor.gif"",""img/Fire_Up_Distractor.gif"",""img/Fire_Up_Distractor.gif"",""img/Fire_Up_Distractor.gif"",""img/Fire_Up_Distractor.gif"",""img/Fire_Up_Distractor.gif""]","7","targetDown_distractorsUp"
"","","","","","html-keyboard-response","50","182037","0.0-14.0-0.0-0.18","5fe5a68fe7a1d236fe7b4261","619531dcf66c91622fa1b861","61959567fd572d00df6428a7","null","","null","","","","","main_T1_ITI","","","","",""
"","","","","","visual-search-circle","51","186187","0.0-14.0-0.0-1.18","5fe5a68fe7a1d236fe7b4261","619531dcf66c91622fa1b861","61959567fd572d00df6428a7","3123.5","","s","true","[[596,253],[448,39],[188,21],[12,213],[53,470],[279,599],[521,502]]","false","7","main_T2_Trial","s","img/Fire_Down_Target.gif","[""img/Fire_Up_Distractor.gif"",""img/Fire_Up_Distractor.gif"",""img/Fire_Up_Distractor.gif"",""img/Fire_Up_Distractor.gif"",""img/Fire_Up_Distractor.gif"",""img/Fire_Up_Distractor.gif"",""img/Fire_Up_Distractor.gif"",""img/Fire_Up_Distractor.gif"",""img/Fire_Up_Distractor.gif"",""img/Fire_Up_Distractor.gif"",""img/Fire_Up_Distractor.gif"",""img/Fire_Up_Distractor.gif""]","7","targetDown_distractorsUp"
"","","","","","html-keyboard-response","52","189958","0.0-14.0-0.0-0.19","5fe5a68fe7a1d236fe7b4261","619531dcf66c91622fa1b861","61959567fd572d00df6428a7","3770.1000003814697","Wow! You've completed 20 out of 160 trials! </p> <p>  </p><p> Take a quick break, then press any key when you're ready to continue."," ","","","","","main_T1_ITI","","","","",""
"","","","","","visual-search-circle","53","193086","0.0-14.0-0.0-1.19","5fe5a68fe7a1d236fe7b4261","619531dcf66c91622fa1b861","61959567fd572d00df6428a7","2108.3999996185303","","s","true","[[480,539],[597,341],[539,119],[341,2],[119,60],[2,258],[60,480],[258,597]]","false","8","main_T2_Trial","s","img/Fire_Up_Target.gif","[""img/Fire_Down_Distractor.gif"",""img/Fire_Down_Distractor.gif"",""img/Fire_Down_Distractor.gif"",""img/Fire_Down_Distractor.gif"",""img/Fire_Down_Distractor.gif"",""img/Fire_Down_Distractor.gif"",""img/Fire_Down_Distractor.gif"",""img/Fire_Down_Distractor.gif"",""img/Fire_Down_Distractor.gif"",""img/Fire_Down_Distractor.gif"",""img/Fire_Down_Distractor.gif"",""img/Fire_Down_Distractor.gif""]","8","targetUp_distractorsDown"
"","","","","","html-keyboard-response","54","193089","0.0-14.0-0.0-0.20","5fe5a68fe7a1d236fe7b4261","619531dcf66c91622fa1b861","61959567fd572d00df6428a7","null","","null","","","","","main_T1_ITI","","","","",""
"","","","","","visual-search-circle","55","195410","0.0-14.0-0.0-1.20","5fe5a68fe7a1d236fe7b4261","619531dcf66c91622fa1b861","61959567fd572d00df6428a7","1300.4000005722046","","d","true","[[397,16],[168,30],[16,202],[30,431],[202,583],[431,569],[583,397],[569,168]]","true","8","main_T2_Trial","d","img/Fire_Up_Target.gif","[""img/Fire_Down_Distractor.gif"",""img/Fire_Down_Distractor.gif"",""img/Fire_Down_Distractor.gif"",""img/Fire_Down_Distractor.gif"",""img/Fire_Down_Distractor.gif"",""img/Fire_Down_Distractor.gif"",""img/Fire_Down_Distractor.gif"",""img/Fire_Down_Distractor.gif"",""img/Fire_Down_Distractor.gif"",""img/Fire_Down_Distractor.gif"",""img/Fire_Down_Distractor.gif"",""img/Fire_Down_Distractor.gif""]","8","targetUp_distractorsDown"
"","","","","","html-keyboard-response","56","195413","0.0-14.0-0.0-0.21","5fe5a68fe7a1d236fe7b4261","619531dcf66c91622fa1b861","61959567fd572d00df6428a7","null","","null","","","","","main_T1_ITI","","","","",""
"","","","","","visual-search-circle","57","197947","0.0-14.0-0.0-1.21","5fe5a68fe7a1d236fe7b4261","619531dcf66c91622fa1b861","61959567fd572d00df6428a7","1516.6999998092651","","d","true","[[315,0],[0,284],[284,599],[599,315]]","true","4","main_T2_Trial","d","img/Fire_Down_Target.gif","[""img/Fire_Up_Distractor.gif"",""img/Fire_Up_Distractor.gif"",""img/Fire_Up_Distractor.gif"",""img/Fire_Up_Distractor.gif"",""img/Fire_Up_Distractor.gif"",""img/Fire_Up_Distractor.gif"",""img/Fire_Up_Distractor.gif"",""img/Fire_Up_Distractor.gif"",""img/Fire_Up_Distractor.gif"",""img/Fire_Up_Distractor.gif"",""img/Fire_Up_Distractor.gif"",""img/Fire_Up_Distractor.gif""]","4","targetDown_distractorsUp"
"","","","","","html-keyboard-response","58","197949","0.0-14.0-0.0-0.22","5fe5a68fe7a1d236fe7b4261","619531dcf66c91622fa1b861","61959567fd572d00df6428a7","null","","null","","","","","main_T1_ITI","","","","",""
"","","","","","visual-search-circle","59","201026","0.0-14.0-0.0-1.22","5fe5a68fe7a1d236fe7b4261","619531dcf66c91622fa1b861","61959567fd572d00df6428a7","2054.9000005722046","","d","true","[[595,352],[524,101],[285,0],[56,124],[11,381],[183,576],[443,563]]","true","7","main_T2_Trial","d","img/Fire_Down_Target.gif","[""img/Fire_Up_Distractor.gif"",""img/Fire_Up_Distractor.gif"",""img/Fire_Up_Distractor.gif"",""img/Fire_Up_Distractor.gif"",""img/Fire_Up_Distractor.gif"",""img/Fire_Up_Distractor.gif"",""img/Fire_Up_Distractor.gif"",""img/Fire_Up_Distractor.gif"",""img/Fire_Up_Distractor.gif"",""img/Fire_Up_Distractor.gif"",""img/Fire_Up_Distractor.gif"",""img/Fire_Up_Distractor.gif""]","7","targetDown_distractorsUp"
"","","","","","html-keyboard-response","60","201060","0.0-14.0-0.0-0.23","5fe5a68fe7a1d236fe7b4261","619531dcf66c91622fa1b861","61959567fd572d00df6428a7","null","","null","","","","","main_T1_ITI","","","","",""
"","","","","","visual-search-circle","61","203349","0.0-14.0-0.0-1.23","5fe5a68fe7a1d236fe7b4261","619531dcf66c91622fa1b861","61959567fd572d00df6428a7","1267.1000003814697","","d","true","[[548,467],[594,242],[467,51],[242,5],[51,132],[5,357],[132,548],[357,594]]","true","8","main_T2_Trial","d","img/Fire_Down_Target.gif","[""img/Fire_Up_Distractor.gif"",""img/Fire_Up_Distractor.gif"",""img/Fire_Up_Distractor.gif"",""img/Fire_Up_Distractor.gif"",""img/Fire_Up_Distractor.gif"",""img/Fire_Up_Distractor.gif"",""img/Fire_Up_Distractor.gif"",""img/Fire_Up_Distractor.gif"",""img/Fire_Up_Distractor.gif"",""img/Fire_Up_Distractor.gif"",""img/Fire_Up_Distractor.gif"",""img/Fire_Up_Distractor.gif""]","8","targetDown_distractorsUp"
"","","","","","html-keyboard-response","62","203358","0.0-14.0-0.0-0.24","5fe5a68fe7a1d236fe7b4261","619531dcf66c91622fa1b861","61959567fd572d00df6428a7","null","","null","","","","","main_T1_ITI","","","","",""
"","","","","","visual-search-circle","63","206535","0.0-14.0-0.0-1.24","5fe5a68fe7a1d236fe7b4261","619531dcf66c91622fa1b861","61959567fd572d00df6428a7","2157.8999996185303","","d","true","[[222,10],[10,377],[377,589],[589,222]]","true","4","main_T2_Trial","d","img/Fire_Up_Target.gif","[""img/Fire_Down_Distractor.gif"",""img/Fire_Down_Distractor.gif"",""img/Fire_Down_Distractor.gif"",""img/Fire_Down_Distractor.gif"",""img/Fire_Down_Distractor.gif"",""img/Fire_Down_Distractor.gif"",""img/Fire_Down_Distractor.gif"",""img/Fire_Down_Distractor.gif"",""img/Fire_Down_Distractor.gif"",""img/Fire_Down_Distractor.gif"",""img/Fire_Down_Distractor.gif"",""img/Fire_Down_Distractor.gif""]","4","targetUp_distractorsDown"
"","","","","","html-keyboard-response","64","206545","0.0-14.0-0.0-0.25","5fe5a68fe7a1d236fe7b4261","619531dcf66c91622fa1b861","61959567fd572d00df6428a7","null","","null","","","","","main_T1_ITI","","","","",""
"","","","","","visual-search-circle","65","208886","0.0-14.0-0.0-1.25","5fe5a68fe7a1d236fe7b4261","619531dcf66c91622fa1b861","61959567fd572d00df6428a7","1316.1000003814697","","s","true","[[551,463],[567,163],[315,0],[48,136],[32,436],[284,599]]","false","6","main_T2_Trial","s","img/Fire_Down_Target.gif","[""img/Fire_Up_Distractor.gif"",""img/Fire_Up_Distractor.gif"",""img/Fire_Up_Distractor.gif"",""img/Fire_Up_Distractor.gif"",""img/Fire_Up_Distractor.gif"",""img/Fire_Up_Distractor.gif"",""img/Fire_Up_Distractor.gif"",""img/Fire_Up_Distractor.gif"",""img/Fire_Up_Distractor.gif"",""img/Fire_Up_Distractor.gif"",""img/Fire_Up_Distractor.gif"",""img/Fire_Up_Distractor.gif""]","6","targetDown_distractorsUp"
"","","","","","html-keyboard-response","66","208889","0.0-14.0-0.0-0.26","5fe5a68fe7a1d236fe7b4261","619531dcf66c91622fa1b861","61959567fd572d00df6428a7","null","","null","","","","","main_T1_ITI","","","","",""
"","","","","","visual-search-circle","67","211056","0.0-14.0-0.0-1.26","5fe5a68fe7a1d236fe7b4261","619531dcf66c91622fa1b861","61959567fd572d00df6428a7","1150","","d","true","[[111,66],[1,268],[66,488],[268,598],[488,533],[598,331],[533,111],[331,1]]","true","8","main_T2_Trial","d","img/Fire_Up_Target.gif","[""img/Fire_Down_Distractor.gif"",""img/Fire_Down_Distractor.gif"",""img/Fire_Down_Distractor.gif"",""img/Fire_Down_Distractor.gif"",""img/Fire_Down_Distractor.gif"",""img/Fire_Down_Distractor.gif"",""img/Fire_Down_Distractor.gif"",""img/Fire_Down_Distractor.gif"",""img/Fire_Down_Distractor.gif"",""img/Fire_Down_Distractor.gif"",""img/Fire_Down_Distractor.gif"",""img/Fire_Down_Distractor.gif""]","8","targetUp_distractorsDown"
"","","","","","html-keyboard-response","68","211058","0.0-14.0-0.0-0.27","5fe5a68fe7a1d236fe7b4261","619531dcf66c91622fa1b861","61959567fd572d00df6428a7","null","","null","","","","","main_T1_ITI","","","","",""
"","","","","","visual-search-circle","69","214259","0.0-14.0-0.0-1.27","5fe5a68fe7a1d236fe7b4261","619531dcf66c91622fa1b861","61959567fd572d00df6428a7","2181.1000003814697","","s","true","[[331,1],[57,123],[25,422],[268,598],[542,476],[574,177]]","false","6","main_T2_Trial","s","img/Fire_Up_Target.gif","[""img/Fire_Down_Distractor.gif"",""img/Fire_Down_Distractor.gif"",""img/Fire_Down_Distractor.gif"",""img/Fire_Down_Distractor.gif"",""img/Fire_Down_Distractor.gif"",""img/Fire_Down_Distractor.gif"",""img/Fire_Down_Distractor.gif"",""img/Fire_Down_Distractor.gif"",""img/Fire_Down_Distractor.gif"",""img/Fire_Down_Distractor.gif"",""img/Fire_Down_Distractor.gif"",""img/Fire_Down_Distractor.gif""]","6","targetUp_distractorsDown"
"","","","","","html-keyboard-response","70","214268","0.0-14.0-0.0-0.28","5fe5a68fe7a1d236fe7b4261","619531dcf66c91622fa1b861","61959567fd572d00df6428a7","null","","null","","","","","main_T1_ITI","","","","",""
"","","","","","visual-search-circle","71","216322","0.0-14.0-0.0-1.28","5fe5a68fe7a1d236fe7b4261","619531dcf66c91622fa1b861","61959567fd572d00df6428a7","1043.7000007629395","","d","true","[[440,564],[564,159],[159,35],[35,440]]","true","4","main_T2_Trial","d","img/Fire_Up_Target.gif","[""img/Fire_Down_Distractor.gif"",""img/Fire_Down_Distractor.gif"",""img/Fire_Down_Distractor.gif"",""img/Fire_Down_Distractor.gif"",""img/Fire_Down_Distractor.gif"",""img/Fire_Down_Distractor.gif"",""img/Fire_Down_Distractor.gif"",""img/Fire_Down_Distractor.gif"",""img/Fire_Down_Distractor.gif"",""img/Fire_Down_Distractor.gif"",""img/Fire_Down_Distractor.gif"",""img/Fire_Down_Distractor.gif""]","4","targetUp_distractorsDown"
"","","","","","html-keyboard-response","72","216323","0.0-14.0-0.0-0.29","5fe5a68fe7a1d236fe7b4261","619531dcf66c91622fa1b861","61959567fd572d00df6428a7","null","","null","","","","","main_T1_ITI","","","","",""
"","","","","","visual-search-circle","73","218453","0.0-14.0-0.0-1.29","5fe5a68fe7a1d236fe7b4261","619531dcf66c91622fa1b861","61959567fd572d00df6428a7","1115.5","","d","true","[[589,377],[541,121],[311,0],[72,104],[5,355],[159,565],[419,574]]","true","7","main_T2_Trial","d","img/Fire_Up_Target.gif","[""img/Fire_Down_Distractor.gif"",""img/Fire_Down_Distractor.gif"",""img/Fire_Down_Distractor.gif"",""img/Fire_Down_Distractor.gif"",""img/Fire_Down_Distractor.gif"",""img/Fire_Down_Distractor.gif"",""img/Fire_Down_Distractor.gif"",""img/Fire_Down_Distractor.gif"",""img/Fire_Down_Distractor.gif"",""img/Fire_Down_Distractor.gif"",""img/Fire_Down_Distractor.gif"",""img/Fire_Down_Distractor.gif""]","7","targetUp_distractorsDown"
"","","","","","html-keyboard-response","74","218456","0.0-14.0-0.0-0.30","5fe5a68fe7a1d236fe7b4261","619531dcf66c91622fa1b861","61959567fd572d00df6428a7","null","","null","","","","","main_T1_ITI","","","","",""
"","","","","","visual-search-circle","75","220477","0.0-14.0-0.0-1.30","5fe5a68fe7a1d236fe7b4261","619531dcf66c91622fa1b861","61959567fd572d00df6428a7","1006.3000001907349","","s","true","[[310,0],[95,80],[0,289],[80,504],[289,599],[504,519],[599,310],[519,95]]","false","8","main_T2_Trial","s","img/Fire_Down_Target.gif","[""img/Fire_Up_Distractor.gif"",""img/Fire_Up_Distractor.gif"",""img/Fire_Up_Distractor.gif"",""img/Fire_Up_Distractor.gif"",""img/Fire_Up_Distractor.gif"",""img/Fire_Up_Distractor.gif"",""img/Fire_Up_Distractor.gif"",""img/Fire_Up_Distractor.gif"",""img/Fire_Up_Distractor.gif"",""img/Fire_Up_Distractor.gif"",""img/Fire_Up_Distractor.gif"",""img/Fire_Up_Distractor.gif""]","8","targetDown_distractorsUp"
"","","","","","html-keyboard-response","76","220479","0.0-14.0-0.0-0.31","5fe5a68fe7a1d236fe7b4261","619531dcf66c91622fa1b861","61959567fd572d00df6428a7","null","","null","","","","","main_T1_ITI","","","","",""
"","","","","","visual-search-circle","77","222479","0.0-14.0-0.0-1.31","5fe5a68fe7a1d236fe7b4261","619531dcf66c91622fa1b861","61959567fd572d00df6428a7","981.0999994277954","","d","true","[[583,397],[397,16],[16,202],[202,583]]","true","4","main_T2_Trial","d","img/Fire_Down_Target.gif","[""img/Fire_Up_Distractor.gif"",""img/Fire_Up_Distractor.gif"",""img/Fire_Up_Distractor.gif"",""img/Fire_Up_Distractor.gif"",""img/Fire_Up_Distractor.gif"",""img/Fire_Up_Distractor.gif"",""img/Fire_Up_Distractor.gif"",""img/Fire_Up_Distractor.gif"",""img/Fire_Up_Distractor.gif"",""img/Fire_Up_Distractor.gif"",""img/Fire_Up_Distractor.gif"",""img/Fire_Up_Distractor.gif""]","4","targetDown_distractorsUp"
"","","","","","html-keyboard-response","78","222480","0.0-14.0-0.0-0.32","5fe5a68fe7a1d236fe7b4261","619531dcf66c91622fa1b861","61959567fd572d00df6428a7","null","","null","","","","","main_T1_ITI","","","","",""
"","","","","","visual-search-circle","79","224969","0.0-14.0-0.0-1.32","5fe5a68fe7a1d236fe7b4261","619531dcf66c91622fa1b861","61959567fd572d00df6428a7","1473.3000001907349","","s","false","[[107,70],[4,352],[197,581],[492,529],[595,247],[402,18]]","true","6","main_T2_Trial","d","img/Fire_Down_Target.gif","[""img/Fire_Up_Distractor.gif"",""img/Fire_Up_Distractor.gif"",""img/Fire_Up_Distractor.gif"",""img/Fire_Up_Distractor.gif"",""img/Fire_Up_Distractor.gif"",""img/Fire_Up_Distractor.gif"",""img/Fire_Up_Distractor.gif"",""img/Fire_Up_Distractor.gif"",""img/Fire_Up_Distractor.gif"",""img/Fire_Up_Distractor.gif"",""img/Fire_Up_Distractor.gif"",""img/Fire_Up_Distractor.gif""]","6","targetDown_distractorsUp"
"","","","","","html-keyboard-response","80","224971","0.0-14.0-0.0-0.33","5fe5a68fe7a1d236fe7b4261","619531dcf66c91622fa1b861","61959567fd572d00df6428a7","null","","null","","","","","main_T1_ITI","","","","",""
"","","","","","visual-search-circle","81","227463","0.0-14.0-0.0-1.33","5fe5a68fe7a1d236fe7b4261","619531dcf66c91622fa1b861","61959567fd572d00df6428a7","1468.3999996185303","","s","true","[[16,202],[119,539],[472,545],[586,212],[305,0]]","false","5","main_T2_Trial","s","img/Fire_Down_Target.gif","[""img/Fire_Up_Distractor.gif"",""img/Fire_Up_Distractor.gif"",""img/Fire_Up_Distractor.gif"",""img/Fire_Up_Distractor.gif"",""img/Fire_Up_Distractor.gif"",""img/Fire_Up_Distractor.gif"",""img/Fire_Up_Distractor.gif"",""img/Fire_Up_Distractor.gif"",""img/Fire_Up_Distractor.gif"",""img/Fire_Up_Distractor.gif"",""img/Fire_Up_Distractor.gif"",""img/Fire_Up_Distractor.gif""]","5","targetDown_distractorsUp"
"","","","","","html-keyboard-response","82","227465","0.0-14.0-0.0-0.34","5fe5a68fe7a1d236fe7b4261","619531dcf66c91622fa1b861","61959567fd572d00df6428a7","null","","null","","","","","main_T1_ITI","","","","",""
"","","","","","visual-search-circle","83","229415","0.0-14.0-0.0-1.34","5fe5a68fe7a1d236fe7b4261","619531dcf66c91622fa1b861","61959567fd572d00df6428a7","924.1999998092651","","d","true","[[91,515],[305,599],[515,508],[599,294],[508,84],[294,0],[84,91],[0,305]]","true","8","main_T2_Trial","d","img/Fire_Down_Target.gif","[""img/Fire_Up_Distractor.gif"",""img/Fire_Up_Distractor.gif"",""img/Fire_Up_Distractor.gif"",""img/Fire_Up_Distractor.gif"",""img/Fire_Up_Distractor.gif"",""img/Fire_Up_Distractor.gif"",""img/Fire_Up_Distractor.gif"",""img/Fire_Up_Distractor.gif"",""img/Fire_Up_Distractor.gif"",""img/Fire_Up_Distractor.gif"",""img/Fire_Up_Distractor.gif"",""img/Fire_Up_Distractor.gif""]","8","targetDown_distractorsUp"
"","","","","","html-keyboard-response","84","229426","0.0-14.0-0.0-0.35","5fe5a68fe7a1d236fe7b4261","619531dcf66c91622fa1b861","61959567fd572d00df6428a7","null","","null","","","","","main_T1_ITI","","","","",""
"","","","","","visual-search-circle","85","232966","0.0-14.0-0.0-1.35","5fe5a68fe7a1d236fe7b4261","619531dcf66c91622fa1b861","61959567fd572d00df6428a7","2513.1000003814697","","s","true","[[480,539],[597,341],[539,119],[341,2],[119,60],[2,258],[60,480],[258,597]]","false","8","main_T2_Trial","s","img/Fire_Up_Target.gif","[""img/Fire_Down_Distractor.gif"",""img/Fire_Down_Distractor.gif"",""img/Fire_Down_Distractor.gif"",""img/Fire_Down_Distractor.gif"",""img/Fire_Down_Distractor.gif"",""img/Fire_Down_Distractor.gif"",""img/Fire_Down_Distractor.gif"",""img/Fire_Down_Distractor.gif"",""img/Fire_Down_Distractor.gif"",""img/Fire_Down_Distractor.gif"",""img/Fire_Down_Distractor.gif"",""img/Fire_Down_Distractor.gif""]","8","targetUp_distractorsDown"
"","","","","","html-keyboard-response","86","232969","0.0-14.0-0.0-0.36","5fe5a68fe7a1d236fe7b4261","619531dcf66c91622fa1b861","61959567fd572d00df6428a7","null","","null","","","","","main_T1_ITI","","","","",""
"","","","","","visual-search-circle","87","235503","0.0-14.0-0.0-1.36","5fe5a68fe7a1d236fe7b4261","619531dcf66c91622fa1b861","61959567fd572d00df6428a7","1495.8000001907349","","s","true","[[522,500],[599,284],[500,77],[284,0],[77,99],[0,315],[99,522],[315,599]]","false","8","main_T2_Trial","s","img/Fire_Up_Target.gif","[""img/Fire_Down_Distractor.gif"",""img/Fire_Down_Distractor.gif"",""img/Fire_Down_Distractor.gif"",""img/Fire_Down_Distractor.gif"",""img/Fire_Down_Distractor.gif"",""img/Fire_Down_Distractor.gif"",""img/Fire_Down_Distractor.gif"",""img/Fire_Down_Distractor.gif"",""img/Fire_Down_Distractor.gif"",""img/Fire_Down_Distractor.gif"",""img/Fire_Down_Distractor.gif"",""img/Fire_Down_Distractor.gif""]","8","targetUp_distractorsDown"
"","","","","","html-keyboard-response","88","235507","0.0-14.0-0.0-0.37","5fe5a68fe7a1d236fe7b4261","619531dcf66c91622fa1b861","61959567fd572d00df6428a7","null","","null","","","","","main_T1_ITI","","","","",""
"","","","","","visual-search-circle","89","238342","0.0-14.0-0.0-1.37","5fe5a68fe7a1d236fe7b4261","619531dcf66c91622fa1b861","61959567fd572d00df6428a7","1816.3000001907349","","s","true","[[341,2],[63,115],[21,412],[258,597],[536,484],[578,187]]","false","6","main_T2_Trial","s","img/Fire_Down_Target.gif","[""img/Fire_Up_Distractor.gif"",""img/Fire_Up_Distractor.gif"",""img/Fire_Up_Distractor.gif"",""img/Fire_Up_Distractor.gif"",""img/Fire_Up_Distractor.gif"",""img/Fire_Up_Distractor.gif"",""img/Fire_Up_Distractor.gif"",""img/Fire_Up_Distractor.gif"",""img/Fire_Up_Distractor.gif"",""img/Fire_Up_Distractor.gif"",""img/Fire_Up_Distractor.gif"",""img/Fire_Up_Distractor.gif""]","6","targetDown_distractorsUp"
"","","","","","html-keyboard-response","90","238344","0.0-14.0-0.0-0.38","5fe5a68fe7a1d236fe7b4261","619531dcf66c91622fa1b861","61959567fd572d00df6428a7","null","","null","","","","","main_T1_ITI","","","","",""
"","","","","","visual-search-circle","91","241124","0.0-14.0-0.0-1.38","5fe5a68fe7a1d236fe7b4261","619531dcf66c91622fa1b861","61959567fd572d00df6428a7","1760.2000007629395","","d","true","[[445,37],[217,11],[37,154],[11,382],[154,562],[382,588],[562,445],[588,217]]","true","8","main_T2_Trial","d","img/Fire_Down_Target.gif","[""img/Fire_Up_Distractor.gif"",""img/Fire_Up_Distractor.gif"",""img/Fire_Up_Distractor.gif"",""img/Fire_Up_Distractor.gif"",""img/Fire_Up_Distractor.gif"",""img/Fire_Up_Distractor.gif"",""img/Fire_Up_Distractor.gif"",""img/Fire_Up_Distractor.gif"",""img/Fire_Up_Distractor.gif"",""img/Fire_Up_Distractor.gif"",""img/Fire_Up_Distractor.gif"",""img/Fire_Up_Distractor.gif""]","8","targetDown_distractorsUp"
"","","","","","html-keyboard-response","92","242617","0.0-14.0-0.0-0.39","5fe5a68fe7a1d236fe7b4261","619531dcf66c91622fa1b861","61959567fd572d00df6428a7","1492.1000003814697","Wow! You've completed 40 out of 160 trials! </p> <p>  </p><p> Take a quick break, then press any key when you're ready to continue."," ","","","","","main_T1_ITI","","","","",""
"","","","","","visual-search-circle","93","245440","0.0-14.0-0.0-1.39","5fe5a68fe7a1d236fe7b4261","619531dcf66c91622fa1b861","61959567fd572d00df6428a7","1801.4000005722046","","d","true","[[247,595],[564,440],[515,91],[168,30],[2,341]]","true","5","main_T2_Trial","d","img/Fire_Up_Target.gif","[""img/Fire_Down_Distractor.gif"",""img/Fire_Down_Distractor.gif"",""img/Fire_Down_Distractor.gif"",""img/Fire_Down_Distractor.gif"",""img/Fire_Down_Distractor.gif"",""img/Fire_Down_Distractor.gif"",""img/Fire_Down_Distractor.gif"",""img/Fire_Down_Distractor.gif"",""img/Fire_Down_Distractor.gif"",""img/Fire_Down_Distractor.gif"",""img/Fire_Down_Distractor.gif"",""img/Fire_Down_Distractor.gif""]","5","targetUp_distractorsDown"
"","","","","","html-keyboard-response","94","245453","0.0-14.0-0.0-0.40","5fe5a68fe7a1d236fe7b4261","619531dcf66c91622fa1b861","61959567fd572d00df6428a7","null","","null","","","","","main_T1_ITI","","","","",""
"","","","","","visual-search-circle","95","248288","0.0-14.0-0.0-1.40","5fe5a68fe7a1d236fe7b4261","619531dcf66c91622fa1b861","61959567fd572d00df6428a7","1814.6000003814697","","d","true","[[99,77],[0,284],[77,500],[284,599],[500,522],[599,315],[522,99],[315,0]]","true","8","main_T2_Trial","d","img/Fire_Up_Target.gif","[""img/Fire_Down_Distractor.gif"",""img/Fire_Down_Distractor.gif"",""img/Fire_Down_Distractor.gif"",""img/Fire_Down_Distractor.gif"",""img/Fire_Down_Distractor.gif"",""img/Fire_Down_Distractor.gif"",""img/Fire_Down_Distractor.gif"",""img/Fire_Down_Distractor.gif"",""img/Fire_Down_Distractor.gif"",""img/Fire_Down_Distractor.gif"",""img/Fire_Down_Distractor.gif"",""img/Fire_Down_Distractor.gif""]","8","targetUp_distractorsDown"
"","","","","","html-keyboard-response","96","248292","0.0-14.0-0.0-0.41","5fe5a68fe7a1d236fe7b4261","619531dcf66c91622fa1b861","61959567fd572d00df6428a7","null","","null","","","","","main_T1_ITI","","","","",""
"","","","","","visual-search-circle","97","251209","0.0-14.0-0.0-1.41","5fe5a68fe7a1d236fe7b4261","619531dcf66c91622fa1b861","61959567fd572d00df6428a7","1902.7000007629395","","s","true","[[77,500],[422,574],[598,268],[362,6],[40,150]]","false","5","main_T2_Trial","s","img/Fire_Down_Target.gif","[""img/Fire_Up_Distractor.gif"",""img/Fire_Up_Distractor.gif"",""img/Fire_Up_Distractor.gif"",""img/Fire_Up_Distractor.gif"",""img/Fire_Up_Distractor.gif"",""img/Fire_Up_Distractor.gif"",""img/Fire_Up_Distractor.gif"",""img/Fire_Up_Distractor.gif"",""img/Fire_Up_Distractor.gif"",""img/Fire_Up_Distractor.gif"",""img/Fire_Up_Distractor.gif"",""img/Fire_Up_Distractor.gif""]","5","targetDown_distractorsUp"
"","","","","","html-keyboard-response","98","251220","0.0-14.0-0.0-0.42","5fe5a68fe7a1d236fe7b4261","619531dcf66c91622fa1b861","61959567fd572d00df6428a7","null","","null","","","","","main_T1_ITI","","","","",""
"","","","","","visual-search-circle","99","253141","0.0-14.0-0.0-1.42","5fe5a68fe7a1d236fe7b4261","619531dcf66c91622fa1b861","61959567fd572d00df6428a7","899.3999996185303","","s","true","[[305,0],[0,294],[294,599],[599,305]]","false","4","main_T2_Trial","s","img/Fire_Down_Target.gif","[""img/Fire_Up_Distractor.gif"",""img/Fire_Up_Distractor.gif"",""img/Fire_Up_Distractor.gif"",""img/Fire_Up_Distractor.gif"",""img/Fire_Up_Distractor.gif"",""img/Fire_Up_Distractor.gif"",""img/Fire_Up_Distractor.gif"",""img/Fire_Up_Distractor.gif"",""img/Fire_Up_Distractor.gif"",""img/Fire_Up_Distractor.gif"",""img/Fire_Up_Distractor.gif"",""img/Fire_Up_Distractor.gif""]","4","targetDown_distractorsUp"
"","","","","","html-keyboard-response","100","253143","0.0-14.0-0.0-0.43","5fe5a68fe7a1d236fe7b4261","619531dcf66c91622fa1b861","61959567fd572d00df6428a7","null","","null","","","","","main_T1_ITI","","","","",""
"","","","","","visual-search-circle","101","255478","0.0-14.0-0.0-1.43","5fe5a68fe7a1d236fe7b4261","619531dcf66c91622fa1b861","61959567fd572d00df6428a7","1322.5999994277954","","s","true","[[227,591],[554,458],[529,107],[187,21],[0,320]]","false","5","main_T2_Trial","s","img/Fire_Down_Target.gif","[""img/Fire_Up_Distractor.gif"",""img/Fire_Up_Distractor.gif"",""img/Fire_Up_Distractor.gif"",""img/Fire_Up_Distractor.gif"",""img/Fire_Up_Distractor.gif"",""img/Fire_Up_Distractor.gif"",""img/Fire_Up_Distractor.gif"",""img/Fire_Up_Distractor.gif"",""img/Fire_Up_Distractor.gif"",""img/Fire_Up_Distractor.gif"",""img/Fire_Up_Distractor.gif"",""img/Fire_Up_Distractor.gif""]","5","targetDown_distractorsUp"
"","","","","","html-keyboard-response","102","255480","0.0-14.0-0.0-0.44","5fe5a68fe7a1d236fe7b4261","619531dcf66c91622fa1b861","61959567fd572d00df6428a7","null","","null","","","","","main_T1_ITI","","","","",""
"","","","","","visual-search-circle","103","257416","0.0-14.0-0.0-1.44","5fe5a68fe7a1d236fe7b4261","619531dcf66c91622fa1b861","61959567fd572d00df6428a7","916.6000003814697","","d","true","[[54,127],[60,480],[397,583],[599,294],[387,13]]","true","5","main_T2_Trial","d","img/Fire_Down_Target.gif","[""img/Fire_Up_Distractor.gif"",""img/Fire_Up_Distractor.gif"",""img/Fire_Up_Distractor.gif"",""img/Fire_Up_Distractor.gif"",""img/Fire_Up_Distractor.gif"",""img/Fire_Up_Distractor.gif"",""img/Fire_Up_Distractor.gif"",""img/Fire_Up_Distractor.gif"",""img/Fire_Up_Distractor.gif"",""img/Fire_Up_Distractor.gif"",""img/Fire_Up_Distractor.gif"",""img/Fire_Up_Distractor.gif""]","5","targetDown_distractorsUp"
"","","","","","html-keyboard-response","104","257419","0.0-14.0-0.0-0.45","5fe5a68fe7a1d236fe7b4261","619531dcf66c91622fa1b861","61959567fd572d00df6428a7","null","","null","","","","","main_T1_ITI","","","","",""
"","","","","","visual-search-circle","105","261463","0.0-14.0-0.0-1.45","5fe5a68fe7a1d236fe7b4261","619531dcf66c91622fa1b861","61959567fd572d00df6428a7","3019.9000005722046","","s","true","[[588,217],[310,0],[18,197],[115,536],[467,548]]","false","5","main_T2_Trial","s","img/Fire_Up_Target.gif","[""img/Fire_Down_Distractor.gif"",""img/Fire_Down_Distractor.gif"",""img/Fire_Down_Distractor.gif"",""img/Fire_Down_Distractor.gif"",""img/Fire_Down_Distractor.gif"",""img/Fire_Down_Distractor.gif"",""img/Fire_Down_Distractor.gif"",""img/Fire_Down_Distractor.gif"",""img/Fire_Down_Distractor.gif"",""img/Fire_Down_Distractor.gif"",""img/Fire_Down_Distractor.gif"",""img/Fire_Down_Distractor.gif""]","5","targetUp_distractorsDown"
"","","","","","html-keyboard-response","106","261466","0.0-14.0-0.0-0.46","5fe5a68fe7a1d236fe7b4261","619531dcf66c91622fa1b861","61959567fd572d00df6428a7","null","","null","","","","","main_T1_ITI","","","","",""
"","","","","","visual-search-circle","107","265200","0.0-14.0-0.0-1.46","5fe5a68fe7a1d236fe7b4261","619531dcf66c91622fa1b861","61959567fd572d00df6428a7","2709.2000007629395","","d","false","[[95,80],[0,289],[80,504],[289,599],[504,519],[599,310],[519,95],[310,0]]","false","8","main_T2_Trial","s","img/Fire_Up_Target.gif","[""img/Fire_Down_Distractor.gif"",""img/Fire_Down_Distractor.gif"",""img/Fire_Down_Distractor.gif"",""img/Fire_Down_Distractor.gif"",""img/Fire_Down_Distractor.gif"",""img/Fire_Down_Distractor.gif"",""img/Fire_Down_Distractor.gif"",""img/Fire_Down_Distractor.gif"",""img/Fire_Down_Distractor.gif"",""img/Fire_Down_Distractor.gif"",""img/Fire_Down_Distractor.gif"",""img/Fire_Down_Distractor.gif""]","8","targetUp_distractorsDown"
"","","","","","html-keyboard-response","108","265202","0.0-14.0-0.0-0.47","5fe5a68fe7a1d236fe7b4261","619531dcf66c91622fa1b861","61959567fd572d00df6428a7","null","","null","","","","","main_T1_ITI","","","","",""
"","","","","","visual-search-circle","109","268440","0.0-14.0-0.0-1.47","5fe5a68fe7a1d236fe7b4261","619531dcf66c91622fa1b861","61959567fd572d00df6428a7","2213.199999809265","","d","true","[[80,95],[0,310],[95,519],[310,599],[519,504],[599,289],[504,80],[289,0]]","true","8","main_T2_Trial","d","img/Fire_Up_Target.gif","[""img/Fire_Down_Distractor.gif"",""img/Fire_Down_Distractor.gif"",""img/Fire_Down_Distractor.gif"",""img/Fire_Down_Distractor.gif"",""img/Fire_Down_Distractor.gif"",""img/Fire_Down_Distractor.gif"",""img/Fire_Down_Distractor.gif"",""img/Fire_Down_Distractor.gif"",""img/Fire_Down_Distractor.gif"",""img/Fire_Down_Distractor.gif"",""img/Fire_Down_Distractor.gif"",""img/Fire_Down_Distractor.gif""]","8","targetUp_distractorsDown"
"","","","","","html-keyboard-response","110","268441","0.0-14.0-0.0-0.48","5fe5a68fe7a1d236fe7b4261","619531dcf66c91622fa1b861","61959567fd572d00df6428a7","null","","null","","","","","main_T1_ITI","","","","",""
"","","","","","visual-search-circle","111","271050","0.0-14.0-0.0-1.48","5fe5a68fe7a1d236fe7b4261","619531dcf66c91622fa1b861","61959567fd572d00df6428a7","1593.3000001907349","","s","true","[[263,2],[23,182],[60,480],[336,597],[576,417],[539,119]]","false","6","main_T2_Trial","s","img/Fire_Up_Target.gif","[""img/Fire_Down_Distractor.gif"",""img/Fire_Down_Distractor.gif"",""img/Fire_Down_Distractor.gif"",""img/Fire_Down_Distractor.gif"",""img/Fire_Down_Distractor.gif"",""img/Fire_Down_Distractor.gif"",""img/Fire_Down_Distractor.gif"",""img/Fire_Down_Distractor.gif"",""img/Fire_Down_Distractor.gif"",""img/Fire_Down_Distractor.gif"",""img/Fire_Down_Distractor.gif"",""img/Fire_Down_Distractor.gif""]","6","targetUp_distractorsDown"
"","","","","","html-keyboard-response","112","271052","0.0-14.0-0.0-0.49","5fe5a68fe7a1d236fe7b4261","619531dcf66c91622fa1b861","61959567fd572d00df6428a7","null","","null","","","","","main_T1_ITI","","","","",""
"","","","","","visual-search-circle","113","274260","0.0-14.0-0.0-1.49","5fe5a68fe7a1d236fe7b4261","619531dcf66c91622fa1b861","61959567fd572d00df6428a7","2181.7000007629395","","d","true","[[45,458],[265,598],[511,512],[598,267],[460,46],[201,16],[17,200]]","true","7","main_T2_Trial","d","img/Fire_Down_Target.gif","[""img/Fire_Up_Distractor.gif"",""img/Fire_Up_Distractor.gif"",""img/Fire_Up_Distractor.gif"",""img/Fire_Up_Distractor.gif"",""img/Fire_Up_Distractor.gif"",""img/Fire_Up_Distractor.gif"",""img/Fire_Up_Distractor.gif"",""img/Fire_Up_Distractor.gif"",""img/Fire_Up_Distractor.gif"",""img/Fire_Up_Distractor.gif"",""img/Fire_Up_Distractor.gif"",""img/Fire_Up_Distractor.gif""]","7","targetDown_distractorsUp"
"","","","","","html-keyboard-response","114","274263","0.0-14.0-0.0-0.50","5fe5a68fe7a1d236fe7b4261","619531dcf66c91622fa1b861","61959567fd572d00df6428a7","null","","null","","","","","main_T1_ITI","","","","",""
"","","","","","visual-search-circle","115","276280","0.0-14.0-0.0-1.50","5fe5a68fe7a1d236fe7b4261","619531dcf66c91622fa1b861","61959567fd572d00df6428a7","1001.5","","d","true","[[45,141],[70,492],[412,578],[599,279],[372,8]]","true","5","main_T2_Trial","d","img/Fire_Down_Target.gif","[""img/Fire_Up_Distractor.gif"",""img/Fire_Up_Distractor.gif"",""img/Fire_Up_Distractor.gif"",""img/Fire_Up_Distractor.gif"",""img/Fire_Up_Distractor.gif"",""img/Fire_Up_Distractor.gif"",""img/Fire_Up_Distractor.gif"",""img/Fire_Up_Distractor.gif"",""img/Fire_Up_Distractor.gif"",""img/Fire_Up_Distractor.gif"",""img/Fire_Up_Distractor.gif"",""img/Fire_Up_Distractor.gif""]","5","targetDown_distractorsUp"
"","","","","","html-keyboard-response","116","276282","0.0-14.0-0.0-0.51","5fe5a68fe7a1d236fe7b4261","619531dcf66c91622fa1b861","61959567fd572d00df6428a7","null","","null","","","","","main_T1_ITI","","","","",""
"","","","","","visual-search-circle","117","279777","0.0-14.0-0.0-1.51","5fe5a68fe7a1d236fe7b4261","619531dcf66c91622fa1b861","61959567fd572d00df6428a7","2469.1000003814697","","d","true","[[589,377],[512,87],[222,10],[10,222],[87,512],[377,589]]","true","6","main_T2_Trial","d","img/Fire_Up_Target.gif","[""img/Fire_Down_Distractor.gif"",""img/Fire_Down_Distractor.gif"",""img/Fire_Down_Distractor.gif"",""img/Fire_Down_Distractor.gif"",""img/Fire_Down_Distractor.gif"",""img/Fire_Down_Distractor.gif"",""img/Fire_Down_Distractor.gif"",""img/Fire_Down_Distractor.gif"",""img/Fire_Down_Distractor.gif"",""img/Fire_Down_Distractor.gif"",""img/Fire_Down_Distractor.gif"",""img/Fire_Down_Distractor.gif""]","6","targetUp_distractorsDown"
"","","","","","html-keyboard-response","118","279779","0.0-14.0-0.0-0.52","5fe5a68fe7a1d236fe7b4261","619531dcf66c91622fa1b861","61959567fd572d00df6428a7","null","","null","","","","","main_T1_ITI","","","","",""
"","","","","","visual-search-circle","119","283790","0.0-14.0-0.0-1.52","5fe5a68fe7a1d236fe7b4261","619531dcf66c91622fa1b861","61959567fd572d00df6428a7","2995.5","","s","true","[[263,2],[63,115],[2,336],[115,536],[336,597],[536,484],[597,263],[484,63]]","false","8","main_T2_Trial","s","img/Fire_Down_Target.gif","[""img/Fire_Up_Distractor.gif"",""img/Fire_Up_Distractor.gif"",""img/Fire_Up_Distractor.gif"",""img/Fire_Up_Distractor.gif"",""img/Fire_Up_Distractor.gif"",""img/Fire_Up_Distractor.gif"",""img/Fire_Up_Distractor.gif"",""img/Fire_Up_Distractor.gif"",""img/Fire_Up_Distractor.gif"",""img/Fire_Up_Distractor.gif"",""img/Fire_Up_Distractor.gif"",""img/Fire_Up_Distractor.gif""]","8","targetDown_distractorsUp"
"","","","","","html-keyboard-response","120","283792","0.0-14.0-0.0-0.53","5fe5a68fe7a1d236fe7b4261","619531dcf66c91622fa1b861","61959567fd572d00df6428a7","null","","null","","","","","main_T1_ITI","","","","",""
"","","","","","visual-search-circle","121","286602","0.0-14.0-0.0-1.53","5fe5a68fe7a1d236fe7b4261","619531dcf66c91622fa1b861","61959567fd572d00df6428a7","1801.6999998092651","","d","false","[[141,554],[554,458],[458,45],[45,141]]","false","4","main_T2_Trial","s","img/Fire_Down_Target.gif","[""img/Fire_Up_Distractor.gif"",""img/Fire_Up_Distractor.gif"",""img/Fire_Up_Distractor.gif"",""img/Fire_Up_Distractor.gif"",""img/Fire_Up_Distractor.gif"",""img/Fire_Up_Distractor.gif"",""img/Fire_Up_Distractor.gif"",""img/Fire_Up_Distractor.gif"",""img/Fire_Up_Distractor.gif"",""img/Fire_Up_Distractor.gif"",""img/Fire_Up_Distractor.gif"",""img/Fire_Up_Distractor.gif""]","4","targetDown_distractorsUp"
"","","","","","html-keyboard-response","122","286604","0.0-14.0-0.0-0.54","5fe5a68fe7a1d236fe7b4261","619531dcf66c91622fa1b861","61959567fd572d00df6428a7","null","","null","","","","","main_T1_ITI","","","","",""
"","","","","","visual-search-circle","123","289226","0.0-14.0-0.0-1.54","5fe5a68fe7a1d236fe7b4261","619531dcf66c91622fa1b861","61959567fd572d00df6428a7","1609.8999996185303","","s","true","[[99,77],[77,500],[500,522],[522,99]]","false","4","main_T2_Trial","s","img/Fire_Down_Target.gif","[""img/Fire_Up_Distractor.gif"",""img/Fire_Up_Distractor.gif"",""img/Fire_Up_Distractor.gif"",""img/Fire_Up_Distractor.gif"",""img/Fire_Up_Distractor.gif"",""img/Fire_Up_Distractor.gif"",""img/Fire_Up_Distractor.gif"",""img/Fire_Up_Distractor.gif"",""img/Fire_Up_Distractor.gif"",""img/Fire_Up_Distractor.gif"",""img/Fire_Up_Distractor.gif"",""img/Fire_Up_Distractor.gif""]","4","targetDown_distractorsUp"
"","","","","","html-keyboard-response","124","289235","0.0-14.0-0.0-0.55","5fe5a68fe7a1d236fe7b4261","619531dcf66c91622fa1b861","61959567fd572d00df6428a7","null","","null","","","","","main_T1_ITI","","","","",""
"","","","","","visual-search-circle","125","294130","0.0-14.0-0.0-1.55","5fe5a68fe7a1d236fe7b4261","619531dcf66c91622fa1b861","61959567fd572d00df6428a7","3880.8999996185303","","s","true","[[192,19],[13,209],[50,467],[275,598],[518,505],[596,257],[451,41]]","false","7","main_T2_Trial","s","img/Fire_Up_Target.gif","[""img/Fire_Down_Distractor.gif"",""img/Fire_Down_Distractor.gif"",""img/Fire_Down_Distractor.gif"",""img/Fire_Down_Distractor.gif"",""img/Fire_Down_Distractor.gif"",""img/Fire_Down_Distractor.gif"",""img/Fire_Down_Distractor.gif"",""img/Fire_Down_Distractor.gif"",""img/Fire_Down_Distractor.gif"",""img/Fire_Down_Distractor.gif"",""img/Fire_Down_Distractor.gif"",""img/Fire_Down_Distractor.gif""]","7","targetUp_distractorsDown"
"","","","","","html-keyboard-response","126","294133","0.0-14.0-0.0-0.56","5fe5a68fe7a1d236fe7b4261","619531dcf66c91622fa1b861","61959567fd572d00df6428a7","null","","null","","","","","main_T1_ITI","","","","",""
"","","","","","visual-search-circle","127","296520","0.0-14.0-0.0-1.56","5fe5a68fe7a1d236fe7b4261","619531dcf66c91622fa1b861","61959567fd572d00df6428a7","1369.3999996185303","","d","true","[[588,382],[515,91],[227,8],[11,217],[84,508],[372,591]]","true","6","main_T2_Trial","d","img/Fire_Down_Target.gif","[""img/Fire_Up_Distractor.gif"",""img/Fire_Up_Distractor.gif"",""img/Fire_Up_Distractor.gif"",""img/Fire_Up_Distractor.gif"",""img/Fire_Up_Distractor.gif"",""img/Fire_Up_Distractor.gif"",""img/Fire_Up_Distractor.gif"",""img/Fire_Up_Distractor.gif"",""img/Fire_Up_Distractor.gif"",""img/Fire_Up_Distractor.gif"",""img/Fire_Up_Distractor.gif"",""img/Fire_Up_Distractor.gif""]","6","targetDown_distractorsUp"
"","","","","","html-keyboard-response","128","296522","0.0-14.0-0.0-0.57","5fe5a68fe7a1d236fe7b4261","619531dcf66c91622fa1b861","61959567fd572d00df6428a7","null","","null","","","","","main_T1_ITI","","","","",""
"","","","","","visual-search-circle","129","299034","0.0-14.0-0.0-1.57","5fe5a68fe7a1d236fe7b4261","619531dcf66c91622fa1b861","61959567fd572d00df6428a7","1496.6999998092651","","d","true","[[476,542],[585,207],[300,0],[14,207],[123,542]]","true","5","main_T2_Trial","d","img/Fire_Up_Target.gif","[""img/Fire_Down_Distractor.gif"",""img/Fire_Down_Distractor.gif"",""img/Fire_Down_Distractor.gif"",""img/Fire_Down_Distractor.gif"",""img/Fire_Down_Distractor.gif"",""img/Fire_Down_Distractor.gif"",""img/Fire_Down_Distractor.gif"",""img/Fire_Down_Distractor.gif"",""img/Fire_Down_Distractor.gif"",""img/Fire_Down_Distractor.gif"",""img/Fire_Down_Distractor.gif"",""img/Fire_Down_Distractor.gif""]","5","targetUp_distractorsDown"
"","","","","","html-keyboard-response","130","299038","0.0-14.0-0.0-0.58","5fe5a68fe7a1d236fe7b4261","619531dcf66c91622fa1b861","61959567fd572d00df6428a7","null","","null","","","","","main_T1_ITI","","","","",""
"","","","","","visual-search-circle","131","302678","0.0-14.0-0.0-1.58","5fe5a68fe7a1d236fe7b4261","619531dcf66c91622fa1b861","61959567fd572d00df6428a7","2628.300000190735","","s","true","[[6,237],[149,559],[500,522],[574,177],[268,1]]","false","5","main_T2_Trial","s","img/Fire_Down_Target.gif","[""img/Fire_Up_Distractor.gif"",""img/Fire_Up_Distractor.gif"",""img/Fire_Up_Distractor.gif"",""img/Fire_Up_Distractor.gif"",""img/Fire_Up_Distractor.gif"",""img/Fire_Up_Distractor.gif"",""img/Fire_Up_Distractor.gif"",""img/Fire_Up_Distractor.gif"",""img/Fire_Up_Distractor.gif"",""img/Fire_Up_Distractor.gif"",""img/Fire_Up_Distractor.gif"",""img/Fire_Up_Distractor.gif""]","5","targetDown_distractorsUp"
"","","","","","html-keyboard-response","132","303741","0.0-14.0-0.0-0.59","5fe5a68fe7a1d236fe7b4261","619531dcf66c91622fa1b861","61959567fd572d00df6428a7","1061.5","Wow! You've completed 60 out of 160 trials! </p> <p>  </p><p> Take a quick break, then press any key when you're ready to continue."," ","","","","","main_T1_ITI","","","","",""
"","","","","","visual-search-circle","133","306575","0.0-14.0-0.0-1.59","5fe5a68fe7a1d236fe7b4261","619531dcf66c91622fa1b861","61959567fd572d00df6428a7","1819.3999996185303","","s","true","[[450,559],[593,237],[331,1],[25,177],[99,522]]","false","5","main_T2_Trial","s","img/Fire_Up_Target.gif","[""img/Fire_Down_Distractor.gif"",""img/Fire_Down_Distractor.gif"",""img/Fire_Down_Distractor.gif"",""img/Fire_Down_Distractor.gif"",""img/Fire_Down_Distractor.gif"",""img/Fire_Down_Distractor.gif"",""img/Fire_Down_Distractor.gif"",""img/Fire_Down_Distractor.gif"",""img/Fire_Down_Distractor.gif"",""img/Fire_Down_Distractor.gif"",""img/Fire_Down_Distractor.gif"",""img/Fire_Down_Distractor.gif""]","5","targetUp_distractorsDown"
"","","","","","html-keyboard-response","134","306578","0.0-14.0-0.0-0.60","5fe5a68fe7a1d236fe7b4261","619531dcf66c91622fa1b861","61959567fd572d00df6428a7","null","","null","","","","","main_T1_ITI","","","","",""
"","","","","","visual-search-circle","135","309107","0.0-14.0-0.0-1.60","5fe5a68fe7a1d236fe7b4261","619531dcf66c91622fa1b861","61959567fd572d00df6428a7","1517.8000001907349","","s","true","[[571,426],[426,28],[28,173],[173,571]]","false","4","main_T2_Trial","s","img/Fire_Down_Target.gif","[""img/Fire_Up_Distractor.gif"",""img/Fire_Up_Distractor.gif"",""img/Fire_Up_Distractor.gif"",""img/Fire_Up_Distractor.gif"",""img/Fire_Up_Distractor.gif"",""img/Fire_Up_Distractor.gif"",""img/Fire_Up_Distractor.gif"",""img/Fire_Up_Distractor.gif"",""img/Fire_Up_Distractor.gif"",""img/Fire_Up_Distractor.gif"",""img/Fire_Up_Distractor.gif"",""img/Fire_Up_Distractor.gif""]","4","targetDown_distractorsUp"
"","","","","","html-keyboard-response","136","309110","0.0-14.0-0.0-0.61","5fe5a68fe7a1d236fe7b4261","619531dcf66c91622fa1b861","61959567fd572d00df6428a7","null","","null","","","","","main_T1_ITI","","","","",""
"","","","","","visual-search-circle","137","311648","0.0-14.0-0.0-1.61","5fe5a68fe7a1d236fe7b4261","619531dcf66c91622fa1b861","61959567fd572d00df6428a7","1520.1000003814697","","s","true","[[551,136],[284,0],[32,163],[48,463],[315,599],[567,436]]","false","6","main_T2_Trial","s","img/Fire_Down_Target.gif","[""img/Fire_Up_Distractor.gif"",""img/Fire_Up_Distractor.gif"",""img/Fire_Up_Distractor.gif"",""img/Fire_Up_Distractor.gif"",""img/Fire_Up_Distractor.gif"",""img/Fire_Up_Distractor.gif"",""img/Fire_Up_Distractor.gif"",""img/Fire_Up_Distractor.gif"",""img/Fire_Up_Distractor.gif"",""img/Fire_Up_Distractor.gif"",""img/Fire_Up_Distractor.gif"",""img/Fire_Up_Distractor.gif""]","6","targetDown_distractorsUp"
"","","","","","html-keyboard-response","138","311662","0.0-14.0-0.0-0.62","5fe5a68fe7a1d236fe7b4261","619531dcf66c91622fa1b861","61959567fd572d00df6428a7","null","","null","","","","","main_T1_ITI","","","","",""
"","","","","","visual-search-circle","139","314202","0.0-14.0-0.0-1.62","5fe5a68fe7a1d236fe7b4261","619531dcf66c91622fa1b861","61959567fd572d00df6428a7","1526.5","","d","true","[[592,232],[326,1],[23,182],[103,526],[454,557]]","true","5","main_T2_Trial","d","img/Fire_Down_Target.gif","[""img/Fire_Up_Distractor.gif"",""img/Fire_Up_Distractor.gif"",""img/Fire_Up_Distractor.gif"",""img/Fire_Up_Distractor.gif"",""img/Fire_Up_Distractor.gif"",""img/Fire_Up_Distractor.gif"",""img/Fire_Up_Distractor.gif"",""img/Fire_Up_Distractor.gif"",""img/Fire_Up_Distractor.gif"",""img/Fire_Up_Distractor.gif"",""img/Fire_Up_Distractor.gif"",""img/Fire_Up_Distractor.gif""]","5","targetDown_distractorsUp"
"","","","","","html-keyboard-response","140","314209","0.0-14.0-0.0-0.63","5fe5a68fe7a1d236fe7b4261","619531dcf66c91622fa1b861","61959567fd572d00df6428a7","null","","null","","","","","main_T1_ITI","","","","",""
"","","","","","visual-search-circle","141","317082","0.0-14.0-0.0-1.63","5fe5a68fe7a1d236fe7b4261","619531dcf66c91622fa1b861","61959567fd572d00df6428a7","1859.8000001907349","","d","true","[[571,426],[504,80],[154,37],[5,357],[263,597]]","true","5","main_T2_Trial","d","img/Fire_Up_Target.gif","[""img/Fire_Down_Distractor.gif"",""img/Fire_Down_Distractor.gif"",""img/Fire_Down_Distractor.gif"",""img/Fire_Down_Distractor.gif"",""img/Fire_Down_Distractor.gif"",""img/Fire_Down_Distractor.gif"",""img/Fire_Down_Distractor.gif"",""img/Fire_Down_Distractor.gif"",""img/Fire_Down_Distractor.gif"",""img/Fire_Down_Distractor.gif"",""img/Fire_Down_Distractor.gif"",""img/Fire_Down_Distractor.gif""]","5","targetUp_distractorsDown"
"","","","","","html-keyboard-response","142","317100","0.0-14.0-0.0-0.64","5fe5a68fe7a1d236fe7b4261","619531dcf66c91622fa1b861","61959567fd572d00df6428a7","null","","null","","","","","main_T1_ITI","","","","",""
"","","","","","visual-search-circle","143","319338","0.0-14.0-0.0-1.64","5fe5a68fe7a1d236fe7b4261","619531dcf66c91622fa1b861","61959567fd572d00df6428a7","1227.1000003814697","","s","true","[[341,2],[2,258],[258,597],[597,341]]","false","4","main_T2_Trial","s","img/Fire_Down_Target.gif","[""img/Fire_Up_Distractor.gif"",""img/Fire_Up_Distractor.gif"",""img/Fire_Up_Distractor.gif"",""img/Fire_Up_Distractor.gif"",""img/Fire_Up_Distractor.gif"",""img/Fire_Up_Distractor.gif"",""img/Fire_Up_Distractor.gif"",""img/Fire_Up_Distractor.gif"",""img/Fire_Up_Distractor.gif"",""img/Fire_Up_Distractor.gif"",""img/Fire_Up_Distractor.gif"",""img/Fire_Up_Distractor.gif""]","4","targetDown_distractorsUp"
"","","","","","html-keyboard-response","144","319340","0.0-14.0-0.0-0.65","5fe5a68fe7a1d236fe7b4261","619531dcf66c91622fa1b861","61959567fd572d00df6428a7","null","","null","","","","","main_T1_ITI","","","","",""
"","","","","","visual-search-circle","145","321910","0.0-14.0-0.0-1.65","5fe5a68fe7a1d236fe7b4261","619531dcf66c91622fa1b861","61959567fd572d00df6428a7","1549.8000001907349","","d","true","[[13,387],[387,586],[586,212],[212,13]]","true","4","main_T2_Trial","d","img/Fire_Down_Target.gif","[""img/Fire_Up_Distractor.gif"",""img/Fire_Up_Distractor.gif"",""img/Fire_Up_Distractor.gif"",""img/Fire_Up_Distractor.gif"",""img/Fire_Up_Distractor.gif"",""img/Fire_Up_Distractor.gif"",""img/Fire_Up_Distractor.gif"",""img/Fire_Up_Distractor.gif"",""img/Fire_Up_Distractor.gif"",""img/Fire_Up_Distractor.gif"",""img/Fire_Up_Distractor.gif"",""img/Fire_Up_Distractor.gif""]","4","targetDown_distractorsUp"
"","","","","","html-keyboard-response","146","321913","0.0-14.0-0.0-0.66","5fe5a68fe7a1d236fe7b4261","619531dcf66c91622fa1b861","61959567fd572d00df6428a7","null","","null","","","","","main_T1_ITI","","","","",""
"","","","","","visual-search-circle","147","324079","0.0-14.0-0.0-1.66","5fe5a68fe7a1d236fe7b4261","619531dcf66c91622fa1b861","61959567fd572d00df6428a7","1152.6999998092651","","d","true","[[580,407],[488,66],[136,48],[10,377],[284,599]]","true","5","main_T2_Trial","d","img/Fire_Up_Target.gif","[""img/Fire_Down_Distractor.gif"",""img/Fire_Down_Distractor.gif"",""img/Fire_Down_Distractor.gif"",""img/Fire_Down_Distractor.gif"",""img/Fire_Down_Distractor.gif"",""img/Fire_Down_Distractor.gif"",""img/Fire_Down_Distractor.gif"",""img/Fire_Down_Distractor.gif"",""img/Fire_Down_Distractor.gif"",""img/Fire_Down_Distractor.gif"",""img/Fire_Down_Distractor.gif"",""img/Fire_Down_Distractor.gif""]","5","targetUp_distractorsDown"
"","","","","","html-keyboard-response","148","324081","0.0-14.0-0.0-0.67","5fe5a68fe7a1d236fe7b4261","619531dcf66c91622fa1b861","61959567fd572d00df6428a7","null","","null","","","","","main_T1_ITI","","","","",""
"","","","","","visual-search-circle","149","326403","0.0-14.0-0.0-1.67","5fe5a68fe7a1d236fe7b4261","619531dcf66c91622fa1b861","61959567fd572d00df6428a7","1316.5","","s","true","[[6,362],[362,593],[593,237],[237,6]]","false","4","main_T2_Trial","s","img/Fire_Up_Target.gif","[""img/Fire_Down_Distractor.gif"",""img/Fire_Down_Distractor.gif"",""img/Fire_Down_Distractor.gif"",""img/Fire_Down_Distractor.gif"",""img/Fire_Down_Distractor.gif"",""img/Fire_Down_Distractor.gif"",""img/Fire_Down_Distractor.gif"",""img/Fire_Down_Distractor.gif"",""img/Fire_Down_Distractor.gif"",""img/Fire_Down_Distractor.gif"",""img/Fire_Down_Distractor.gif"",""img/Fire_Down_Distractor.gif""]","4","targetUp_distractorsDown"
"","","","","","html-keyboard-response","150","326419","0.0-14.0-0.0-0.68","5fe5a68fe7a1d236fe7b4261","619531dcf66c91622fa1b861","61959567fd572d00df6428a7","null","","null","","","","","main_T1_ITI","","","","",""
"","","","","","visual-search-circle","151","328877","0.0-14.0-0.0-1.68","5fe5a68fe7a1d236fe7b4261","619531dcf66c91622fa1b861","61959567fd572d00df6428a7","1445.1999998092651","","s","true","[[247,595],[564,440],[515,91],[168,30],[2,341]]","false","5","main_T2_Trial","s","img/Fire_Up_Target.gif","[""img/Fire_Down_Distractor.gif"",""img/Fire_Down_Distractor.gif"",""img/Fire_Down_Distractor.gif"",""img/Fire_Down_Distractor.gif"",""img/Fire_Down_Distractor.gif"",""img/Fire_Down_Distractor.gif"",""img/Fire_Down_Distractor.gif"",""img/Fire_Down_Distractor.gif"",""img/Fire_Down_Distractor.gif"",""img/Fire_Down_Distractor.gif"",""img/Fire_Down_Distractor.gif"",""img/Fire_Down_Distractor.gif""]","5","targetUp_distractorsDown"
"","","","","","html-keyboard-response","152","328880","0.0-14.0-0.0-0.69","5fe5a68fe7a1d236fe7b4261","619531dcf66c91622fa1b861","61959567fd572d00df6428a7","null","","null","","","","","main_T1_ITI","","","","",""
"","","","","","visual-search-circle","153","331217","0.0-14.0-0.0-1.69","5fe5a68fe7a1d236fe7b4261","619531dcf66c91622fa1b861","61959567fd572d00df6428a7","1320.8000001907349","","s","true","[[11,382],[289,599],[581,402],[484,63],[132,51]]","false","5","main_T2_Trial","s","img/Fire_Down_Target.gif","[""img/Fire_Up_Distractor.gif"",""img/Fire_Up_Distractor.gif"",""img/Fire_Up_Distractor.gif"",""img/Fire_Up_Distractor.gif"",""img/Fire_Up_Distractor.gif"",""img/Fire_Up_Distractor.gif"",""img/Fire_Up_Distractor.gif"",""img/Fire_Up_Distractor.gif"",""img/Fire_Up_Distractor.gif"",""img/Fire_Up_Distractor.gif"",""img/Fire_Up_Distractor.gif"",""img/Fire_Up_Distractor.gif""]","5","targetDown_distractorsUp"
"","","","","","html-keyboard-response","154","331219","0.0-14.0-0.0-0.70","5fe5a68fe7a1d236fe7b4261","619531dcf66c91622fa1b861","61959567fd572d00df6428a7","null","","null","","","","","main_T1_ITI","","","","",""
"","","","","","visual-search-circle","155","335639","0.0-14.0-0.0-1.70","5fe5a68fe7a1d236fe7b4261","619531dcf66c91622fa1b861","61959567fd572d00df6428a7","3405.699999809265","","s","true","[[352,595],[545,472],[595,247],[472,54],[247,4],[54,127],[4,352],[127,545]]","false","8","main_T2_Trial","s","img/Fire_Down_Target.gif","[""img/Fire_Up_Distractor.gif"",""img/Fire_Up_Distractor.gif"",""img/Fire_Up_Distractor.gif"",""img/Fire_Up_Distractor.gif"",""img/Fire_Up_Distractor.gif"",""img/Fire_Up_Distractor.gif"",""img/Fire_Up_Distractor.gif"",""img/Fire_Up_Distractor.gif"",""img/Fire_Up_Distractor.gif"",""img/Fire_Up_Distractor.gif"",""img/Fire_Up_Distractor.gif"",""img/Fire_Up_Distractor.gif""]","8","targetDown_distractorsUp"
"","","","","","html-keyboard-response","156","335643","0.0-14.0-0.0-0.71","5fe5a68fe7a1d236fe7b4261","619531dcf66c91622fa1b861","61959567fd572d00df6428a7","null","","null","","","","","main_T1_ITI","","","","",""
"","","","","","visual-search-circle","157","337969","0.0-14.0-0.0-1.71","5fe5a68fe7a1d236fe7b4261","619531dcf66c91622fa1b861","61959567fd572d00df6428a7","1312.6999998092651","","d","true","[[0,320],[320,599],[599,279],[279,0]]","true","4","main_T2_Trial","d","img/Fire_Down_Target.gif","[""img/Fire_Up_Distractor.gif"",""img/Fire_Up_Distractor.gif"",""img/Fire_Up_Distractor.gif"",""img/Fire_Up_Distractor.gif"",""img/Fire_Up_Distractor.gif"",""img/Fire_Up_Distractor.gif"",""img/Fire_Up_Distractor.gif"",""img/Fire_Up_Distractor.gif"",""img/Fire_Up_Distractor.gif"",""img/Fire_Up_Distractor.gif"",""img/Fire_Up_Distractor.gif"",""img/Fire_Up_Distractor.gif""]","4","targetDown_distractorsUp"
"","","","","","html-keyboard-response","158","337972","0.0-14.0-0.0-0.72","5fe5a68fe7a1d236fe7b4261","619531dcf66c91622fa1b861","61959567fd572d00df6428a7","null","","null","","","","","main_T1_ITI","","","","",""
"","","","","","visual-search-circle","159","340508","0.0-14.0-0.0-1.72","5fe5a68fe7a1d236fe7b4261","619531dcf66c91622fa1b861","61959567fd572d00df6428a7","1525.6000003814697","","s","true","[[202,583],[539,480],[545,127],[212,13],[0,294]]","false","5","main_T2_Trial","s","img/Fire_Down_Target.gif","[""img/Fire_Up_Distractor.gif"",""img/Fire_Up_Distractor.gif"",""img/Fire_Up_Distractor.gif"",""img/Fire_Up_Distractor.gif"",""img/Fire_Up_Distractor.gif"",""img/Fire_Up_Distractor.gif"",""img/Fire_Up_Distractor.gif"",""img/Fire_Up_Distractor.gif"",""img/Fire_Up_Distractor.gif"",""img/Fire_Up_Distractor.gif"",""img/Fire_Up_Distractor.gif"",""img/Fire_Up_Distractor.gif""]","5","targetDown_distractorsUp"
"","","","","","html-keyboard-response","160","340522","0.0-14.0-0.0-0.73","5fe5a68fe7a1d236fe7b4261","619531dcf66c91622fa1b861","61959567fd572d00df6428a7","null","","null","","","","","main_T1_ITI","","","","",""
"","","","","","visual-search-circle","161","343330","0.0-14.0-0.0-1.73","5fe5a68fe7a1d236fe7b4261","619531dcf66c91622fa1b861","61959567fd572d00df6428a7","1793.8999996185303","","s","true","[[300,0],[65,112],[7,366],[169,570],[430,570],[592,366],[534,112]]","false","7","main_T2_Trial","s","img/Fire_Up_Target.gif","[""img/Fire_Down_Distractor.gif"",""img/Fire_Down_Distractor.gif"",""img/Fire_Down_Distractor.gif"",""img/Fire_Down_Distractor.gif"",""img/Fire_Down_Distractor.gif"",""img/Fire_Down_Distractor.gif"",""img/Fire_Down_Distractor.gif"",""img/Fire_Down_Distractor.gif"",""img/Fire_Down_Distractor.gif"",""img/Fire_Down_Distractor.gif"",""img/Fire_Down_Distractor.gif"",""img/Fire_Down_Distractor.gif""]","7","targetUp_distractorsDown"
"","","","","","html-keyboard-response","162","343332","0.0-14.0-0.0-0.74","5fe5a68fe7a1d236fe7b4261","619531dcf66c91622fa1b861","61959567fd572d00df6428a7","null","","null","","","","","main_T1_ITI","","","","",""
"","","","","","visual-search-circle","163","345839","0.0-14.0-0.0-1.74","5fe5a68fe7a1d236fe7b4261","619531dcf66c91622fa1b861","61959567fd572d00df6428a7","1494.3000001907349","","d","true","[[450,40],[99,77],[25,422],[331,598],[593,362]]","true","5","main_T2_Trial","d","img/Fire_Up_Target.gif","[""img/Fire_Down_Distractor.gif"",""img/Fire_Down_Distractor.gif"",""img/Fire_Down_Distractor.gif"",""img/Fire_Down_Distractor.gif"",""img/Fire_Down_Distractor.gif"",""img/Fire_Down_Distractor.gif"",""img/Fire_Down_Distractor.gif"",""img/Fire_Down_Distractor.gif"",""img/Fire_Down_Distractor.gif"",""img/Fire_Down_Distractor.gif"",""img/Fire_Down_Distractor.gif"",""img/Fire_Down_Distractor.gif""]","5","targetUp_distractorsDown"
"","","","","","html-keyboard-response","164","345843","0.0-14.0-0.0-0.75","5fe5a68fe7a1d236fe7b4261","619531dcf66c91622fa1b861","61959567fd572d00df6428a7","null","","null","","","","","main_T1_ITI","","","","",""
"","","","","","visual-search-circle","165","348479","0.0-14.0-0.0-1.75","5fe5a68fe7a1d236fe7b4261","619531dcf66c91622fa1b861","61959567fd572d00df6428a7","1623.3000001907349","","s","true","[[66,111],[19,407],[253,596],[533,488],[580,192],[346,3]]","false","6","main_T2_Trial","s","img/Fire_Down_Target.gif","[""img/Fire_Up_Distractor.gif"",""img/Fire_Up_Distractor.gif"",""img/Fire_Up_Distractor.gif"",""img/Fire_Up_Distractor.gif"",""img/Fire_Up_Distractor.gif"",""img/Fire_Up_Distractor.gif"",""img/Fire_Up_Distractor.gif"",""img/Fire_Up_Distractor.gif"",""img/Fire_Up_Distractor.gif"",""img/Fire_Up_Distractor.gif"",""img/Fire_Up_Distractor.gif"",""img/Fire_Up_Distractor.gif""]","6","targetDown_distractorsUp"
"","","","","","html-keyboard-response","166","348492","0.0-14.0-0.0-0.76","5fe5a68fe7a1d236fe7b4261","619531dcf66c91622fa1b861","61959567fd572d00df6428a7","null","","null","","","","","main_T1_ITI","","","","",""
"","","","","","visual-search-circle","167","351441","0.0-14.0-0.0-1.76","5fe5a68fe7a1d236fe7b4261","619531dcf66c91622fa1b861","61959567fd572d00df6428a7","1940.1999998092651","","d","true","[[222,10],[0,284],[192,580],[533,488],[551,136]]","true","5","main_T2_Trial","d","img/Fire_Up_Target.gif","[""img/Fire_Down_Distractor.gif"",""img/Fire_Down_Distractor.gif"",""img/Fire_Down_Distractor.gif"",""img/Fire_Down_Distractor.gif"",""img/Fire_Down_Distractor.gif"",""img/Fire_Down_Distractor.gif"",""img/Fire_Down_Distractor.gif"",""img/Fire_Down_Distractor.gif"",""img/Fire_Down_Distractor.gif"",""img/Fire_Down_Distractor.gif"",""img/Fire_Down_Distractor.gif"",""img/Fire_Down_Distractor.gif""]","5","targetUp_distractorsDown"
"","","","","","html-keyboard-response","168","351448","0.0-14.0-0.0-0.77","5fe5a68fe7a1d236fe7b4261","619531dcf66c91622fa1b861","61959567fd572d00df6428a7","null","","null","","","","","main_T1_ITI","","","","",""
"","","","","","visual-search-circle","169","354081","0.0-14.0-0.0-1.77","5fe5a68fe7a1d236fe7b4261","619531dcf66c91622fa1b861","61959567fd572d00df6428a7","1623.3000001907349","","s","true","[[595,247],[247,4],[4,352],[352,595]]","false","4","main_T2_Trial","s","img/Fire_Down_Target.gif","[""img/Fire_Up_Distractor.gif"",""img/Fire_Up_Distractor.gif"",""img/Fire_Up_Distractor.gif"",""img/Fire_Up_Distractor.gif"",""img/Fire_Up_Distractor.gif"",""img/Fire_Up_Distractor.gif"",""img/Fire_Up_Distractor.gif"",""img/Fire_Up_Distractor.gif"",""img/Fire_Up_Distractor.gif"",""img/Fire_Up_Distractor.gif"",""img/Fire_Up_Distractor.gif"",""img/Fire_Up_Distractor.gif""]","4","targetDown_distractorsUp"
"","","","","","html-keyboard-response","170","354093","0.0-14.0-0.0-0.78","5fe5a68fe7a1d236fe7b4261","619531dcf66c91622fa1b861","61959567fd572d00df6428a7","null","","null","","","","","main_T1_ITI","","","","",""
"","","","","","visual-search-circle","171","356530","0.0-14.0-0.0-1.78","5fe5a68fe7a1d236fe7b4261","619531dcf66c91622fa1b861","61959567fd572d00df6428a7","1413","","d","true","[[11,382],[184,577],[444,562],[595,350],[523,100],[283,0],[55,126]]","true","7","main_T2_Trial","d","img/Fire_Up_Target.gif","[""img/Fire_Down_Distractor.gif"",""img/Fire_Down_Distractor.gif"",""img/Fire_Down_Distractor.gif"",""img/Fire_Down_Distractor.gif"",""img/Fire_Down_Distractor.gif"",""img/Fire_Down_Distractor.gif"",""img/Fire_Down_Distractor.gif"",""img/Fire_Down_Distractor.gif"",""img/Fire_Down_Distractor.gif"",""img/Fire_Down_Distractor.gif"",""img/Fire_Down_Distractor.gif"",""img/Fire_Down_Distractor.gif""]","7","targetUp_distractorsDown"
"","","","","","html-keyboard-response","172","357743","0.0-14.0-0.0-0.79","5fe5a68fe7a1d236fe7b4261","619531dcf66c91622fa1b861","61959567fd572d00df6428a7","1211.9000005722046","Wow! You've completed 80 out of 160 trials! </p> <p>  </p><p> Take a quick break, then press any key when you're ready to continue."," ","","","","","main_T1_ITI","","","","",""
"","","","","","visual-search-circle","173","360794","0.0-14.0-0.0-1.79","5fe5a68fe7a1d236fe7b4261","619531dcf66c91622fa1b861","61959567fd572d00df6428a7","2033.5","","s","true","[[599,310],[458,45],[159,35],[0,289],[141,554],[440,564]]","false","6","main_T2_Trial","s","img/Fire_Up_Target.gif","[""img/Fire_Down_Distractor.gif"",""img/Fire_Down_Distractor.gif"",""img/Fire_Down_Distractor.gif"",""img/Fire_Down_Distractor.gif"",""img/Fire_Down_Distractor.gif"",""img/Fire_Down_Distractor.gif"",""img/Fire_Down_Distractor.gif"",""img/Fire_Down_Distractor.gif"",""img/Fire_Down_Distractor.gif"",""img/Fire_Down_Distractor.gif"",""img/Fire_Down_Distractor.gif"",""img/Fire_Down_Distractor.gif""]","6","targetUp_distractorsDown"
"","","","","","html-keyboard-response","174","360800","0.0-14.0-0.0-0.80","5fe5a68fe7a1d236fe7b4261","619531dcf66c91622fa1b861","61959567fd572d00df6428a7","null","","null","","","","","main_T1_ITI","","","","",""
"","","","","","visual-search-circle","175","363564","0.0-14.0-0.0-1.80","5fe5a68fe7a1d236fe7b4261","619531dcf66c91622fa1b861","61959567fd572d00df6428a7","1740.0999994277954","","d","true","[[63,115],[51,467],[382,588],[599,310],[402,18]]","true","5","main_T2_Trial","d","img/Fire_Down_Target.gif","[""img/Fire_Up_Distractor.gif"",""img/Fire_Up_Distractor.gif"",""img/Fire_Up_Distractor.gif"",""img/Fire_Up_Distractor.gif"",""img/Fire_Up_Distractor.gif"",""img/Fire_Up_Distractor.gif"",""img/Fire_Up_Distractor.gif"",""img/Fire_Up_Distractor.gif"",""img/Fire_Up_Distractor.gif"",""img/Fire_Up_Distractor.gif"",""img/Fire_Up_Distractor.gif"",""img/Fire_Up_Distractor.gif""]","5","targetDown_distractorsUp"
"","","","","","html-keyboard-response","176","363569","0.0-14.0-0.0-0.81","5fe5a68fe7a1d236fe7b4261","619531dcf66c91622fa1b861","61959567fd572d00df6428a7","null","","null","","","","","main_T1_ITI","","","","",""
"","","","","","visual-search-circle","177","365882","0.0-14.0-0.0-1.81","5fe5a68fe7a1d236fe7b4261","619531dcf66c91622fa1b861","61959567fd572d00df6428a7","1283.7999992370605","","s","true","[[177,25],[19,192],[25,422],[192,580],[422,574],[580,407],[574,177],[407,19]]","false","8","main_T2_Trial","s","img/Fire_Up_Target.gif","[""img/Fire_Down_Distractor.gif"",""img/Fire_Down_Distractor.gif"",""img/Fire_Down_Distractor.gif"",""img/Fire_Down_Distractor.gif"",""img/Fire_Down_Distractor.gif"",""img/Fire_Down_Distractor.gif"",""img/Fire_Down_Distractor.gif"",""img/Fire_Down_Distractor.gif"",""img/Fire_Down_Distractor.gif"",""img/Fire_Down_Distractor.gif"",""img/Fire_Down_Distractor.gif"",""img/Fire_Down_Distractor.gif""]","8","targetUp_distractorsDown"
"","","","","","html-keyboard-response","178","365884","0.0-14.0-0.0-0.82","5fe5a68fe7a1d236fe7b4261","619531dcf66c91622fa1b861","61959567fd572d00df6428a7","null","","null","","","","","main_T1_ITI","","","","",""
"","","","","","visual-search-circle","179","368915","0.0-14.0-0.0-1.82","5fe5a68fe7a1d236fe7b4261","619531dcf66c91622fa1b861","61959567fd572d00df6428a7","2022.8000001907349","","s","true","[[467,51],[115,63],[18,402],[310,599],[588,382]]","false","5","main_T2_Trial","s","img/Fire_Up_Target.gif","[""img/Fire_Down_Distractor.gif"",""img/Fire_Down_Distractor.gif"",""img/Fire_Down_Distractor.gif"",""img/Fire_Down_Distractor.gif"",""img/Fire_Down_Distractor.gif"",""img/Fire_Down_Distractor.gif"",""img/Fire_Down_Distractor.gif"",""img/Fire_Down_Distractor.gif"",""img/Fire_Down_Distractor.gif"",""img/Fire_Down_Distractor.gif"",""img/Fire_Down_Distractor.gif"",""img/Fire_Down_Distractor.gif""]","5","targetUp_distractorsDown"
"","","","","","html-keyboard-response","180","368918","0.0-14.0-0.0-0.83","5fe5a68fe7a1d236fe7b4261","619531dcf66c91622fa1b861","61959567fd572d00df6428a7","null","","null","","","","","main_T1_ITI","","","","",""
"","","","","","visual-search-circle","181","370961","0.0-14.0-0.0-1.83","5fe5a68fe7a1d236fe7b4261","619531dcf66c91622fa1b861","61959567fd572d00df6428a7","1022.8000001907349","","d","true","[[522,99],[177,25],[1,331],[237,593],[559,450]]","true","5","main_T2_Trial","d","img/Fire_Up_Target.gif","[""img/Fire_Down_Distractor.gif"",""img/Fire_Down_Distractor.gif"",""img/Fire_Down_Distractor.gif"",""img/Fire_Down_Distractor.gif"",""img/Fire_Down_Distractor.gif"",""img/Fire_Down_Distractor.gif"",""img/Fire_Down_Distractor.gif"",""img/Fire_Down_Distractor.gif"",""img/Fire_Down_Distractor.gif"",""img/Fire_Down_Distractor.gif"",""img/Fire_Down_Distractor.gif"",""img/Fire_Down_Distractor.gif""]","5","targetUp_distractorsDown"
"","","","","","html-keyboard-response","182","370963","0.0-14.0-0.0-0.84","5fe5a68fe7a1d236fe7b4261","619531dcf66c91622fa1b861","61959567fd572d00df6428a7","null","","null","","","","","main_T1_ITI","","","","",""
"","","","","","visual-search-circle","183","373574","0.0-14.0-0.0-1.84","5fe5a68fe7a1d236fe7b4261","619531dcf66c91622fa1b861","61959567fd572d00df6428a7","1600.2999992370605","","d","true","[[341,2],[93,82],[1,325],[133,549],[391,585],[580,406],[558,147]]","true","7","main_T2_Trial","d","img/Fire_Down_Target.gif","[""img/Fire_Up_Distractor.gif"",""img/Fire_Up_Distractor.gif"",""img/Fire_Up_Distractor.gif"",""img/Fire_Up_Distractor.gif"",""img/Fire_Up_Distractor.gif"",""img/Fire_Up_Distractor.gif"",""img/Fire_Up_Distractor.gif"",""img/Fire_Up_Distractor.gif"",""img/Fire_Up_Distractor.gif"",""img/Fire_Up_Distractor.gif"",""img/Fire_Up_Distractor.gif"",""img/Fire_Up_Distractor.gif""]","7","targetDown_distractorsUp"
"","","","","","html-keyboard-response","184","373590","0.0-14.0-0.0-0.85","5fe5a68fe7a1d236fe7b4261","619531dcf66c91622fa1b861","61959567fd572d00df6428a7","null","","null","","","","","main_T1_ITI","","","","",""
"","","","","","visual-search-circle","185","376289","0.0-14.0-0.0-1.85","5fe5a68fe7a1d236fe7b4261","619531dcf66c91622fa1b861","61959567fd572d00df6428a7","1680.6999998092651","","s","true","[[136,551],[394,584],[581,403],[556,144],[338,2],[91,84],[1,329]]","false","7","main_T2_Trial","s","img/Fire_Up_Target.gif","[""img/Fire_Down_Distractor.gif"",""img/Fire_Down_Distractor.gif"",""img/Fire_Down_Distractor.gif"",""img/Fire_Down_Distractor.gif"",""img/Fire_Down_Distractor.gif"",""img/Fire_Down_Distractor.gif"",""img/Fire_Down_Distractor.gif"",""img/Fire_Down_Distractor.gif"",""img/Fire_Down_Distractor.gif"",""img/Fire_Down_Distractor.gif"",""img/Fire_Down_Distractor.gif"",""img/Fire_Down_Distractor.gif""]","7","targetUp_distractorsDown"
"","","","","","html-keyboard-response","186","376292","0.0-14.0-0.0-0.86","5fe5a68fe7a1d236fe7b4261","619531dcf66c91622fa1b861","61959567fd572d00df6428a7","null","","null","","","","","main_T1_ITI","","","","",""
"","","","","","visual-search-circle","187","378490","0.0-14.0-0.0-1.86","5fe5a68fe7a1d236fe7b4261","619531dcf66c91622fa1b861","61959567fd572d00df6428a7","1177.3999996185303","","s","true","[[578,412],[412,21],[21,187],[187,578]]","false","4","main_T2_Trial","s","img/Fire_Up_Target.gif","[""img/Fire_Down_Distractor.gif"",""img/Fire_Down_Distractor.gif"",""img/Fire_Down_Distractor.gif"",""img/Fire_Down_Distractor.gif"",""img/Fire_Down_Distractor.gif"",""img/Fire_Down_Distractor.gif"",""img/Fire_Down_Distractor.gif"",""img/Fire_Down_Distractor.gif"",""img/Fire_Down_Distractor.gif"",""img/Fire_Down_Distractor.gif"",""img/Fire_Down_Distractor.gif"",""img/Fire_Down_Distractor.gif""]","4","targetUp_distractorsDown"
"","","","","","html-keyboard-response","188","378492","0.0-14.0-0.0-0.87","5fe5a68fe7a1d236fe7b4261","619531dcf66c91622fa1b861","61959567fd572d00df6428a7","null","","null","","","","","main_T1_ITI","","","","",""
"","","","","","visual-search-circle","189","381349","0.0-14.0-0.0-1.87","5fe5a68fe7a1d236fe7b4261","619531dcf66c91622fa1b861","61959567fd572d00df6428a7","1838","","s","true","[[136,48],[6,237],[48,463],[237,593],[463,551],[593,362],[551,136],[362,6]]","false","8","main_T2_Trial","s","img/Fire_Up_Target.gif","[""img/Fire_Down_Distractor.gif"",""img/Fire_Down_Distractor.gif"",""img/Fire_Down_Distractor.gif"",""img/Fire_Down_Distractor.gif"",""img/Fire_Down_Distractor.gif"",""img/Fire_Down_Distractor.gif"",""img/Fire_Down_Distractor.gif"",""img/Fire_Down_Distractor.gif"",""img/Fire_Down_Distractor.gif"",""img/Fire_Down_Distractor.gif"",""img/Fire_Down_Distractor.gif"",""img/Fire_Down_Distractor.gif""]","8","targetUp_distractorsDown"
"","","","","","html-keyboard-response","190","381352","0.0-14.0-0.0-0.88","5fe5a68fe7a1d236fe7b4261","619531dcf66c91622fa1b861","61959567fd572d00df6428a7","null","","null","","","","","main_T1_ITI","","","","",""
"","","","","","visual-search-circle","191","383491","0.0-14.0-0.0-1.88","5fe5a68fe7a1d236fe7b4261","619531dcf66c91622fa1b861","61959567fd572d00df6428a7","1120.5","","d","true","[[0,279],[97,520],[346,596],[560,448],[578,189],[386,12],[129,52]]","true","7","main_T2_Trial","d","img/Fire_Up_Target.gif","[""img/Fire_Down_Distractor.gif"",""img/Fire_Down_Distractor.gif"",""img/Fire_Down_Distractor.gif"",""img/Fire_Down_Distractor.gif"",""img/Fire_Down_Distractor.gif"",""img/Fire_Down_Distractor.gif"",""img/Fire_Down_Distractor.gif"",""img/Fire_Down_Distractor.gif"",""img/Fire_Down_Distractor.gif"",""img/Fire_Down_Distractor.gif"",""img/Fire_Down_Distractor.gif"",""img/Fire_Down_Distractor.gif""]","7","targetUp_distractorsDown"
"","","","","","html-keyboard-response","192","383500","0.0-14.0-0.0-0.89","5fe5a68fe7a1d236fe7b4261","619531dcf66c91622fa1b861","61959567fd572d00df6428a7","null","","null","","","","","main_T1_ITI","","","","",""
"","","","","","visual-search-circle","193","385792","0.0-14.0-0.0-1.89","5fe5a68fe7a1d236fe7b4261","619531dcf66c91622fa1b861","61959567fd572d00df6428a7","1273.3999996185303","","d","true","[[569,431],[548,132],[279,0],[30,168],[51,467],[320,599]]","true","6","main_T2_Trial","d","img/Fire_Up_Target.gif","[""img/Fire_Down_Distractor.gif"",""img/Fire_Down_Distractor.gif"",""img/Fire_Down_Distractor.gif"",""img/Fire_Down_Distractor.gif"",""img/Fire_Down_Distractor.gif"",""img/Fire_Down_Distractor.gif"",""img/Fire_Down_Distractor.gif"",""img/Fire_Down_Distractor.gif"",""img/Fire_Down_Distractor.gif"",""img/Fire_Down_Distractor.gif"",""img/Fire_Down_Distractor.gif"",""img/Fire_Down_Distractor.gif""]","6","targetUp_distractorsDown"
"","","","","","html-keyboard-response","194","385795","0.0-14.0-0.0-0.90","5fe5a68fe7a1d236fe7b4261","619531dcf66c91622fa1b861","61959567fd572d00df6428a7","null","","null","","","","","main_T1_ITI","","","","",""
"","","","","","visual-search-circle","195","389087","0.0-14.0-0.0-1.90","5fe5a68fe7a1d236fe7b4261","619531dcf66c91622fa1b861","61959567fd572d00df6428a7","2280.5","","d","true","[[84,508],[372,591],[588,382],[515,91],[227,8],[11,217]]","true","6","main_T2_Trial","d","img/Fire_Down_Target.gif","[""img/Fire_Up_Distractor.gif"",""img/Fire_Up_Distractor.gif"",""img/Fire_Up_Distractor.gif"",""img/Fire_Up_Distractor.gif"",""img/Fire_Up_Distractor.gif"",""img/Fire_Up_Distractor.gif"",""img/Fire_Up_Distractor.gif"",""img/Fire_Up_Distractor.gif"",""img/Fire_Up_Distractor.gif"",""img/Fire_Up_Distractor.gif"",""img/Fire_Up_Distractor.gif"",""img/Fire_Up_Distractor.gif""]","6","targetDown_distractorsUp"
"","","","","","html-keyboard-response","196","389088","0.0-14.0-0.0-0.91","5fe5a68fe7a1d236fe7b4261","619531dcf66c91622fa1b861","61959567fd572d00df6428a7","null","","null","","","","","main_T1_ITI","","","","",""
"","","","","","visual-search-circle","197","393623","0.0-14.0-0.0-1.91","5fe5a68fe7a1d236fe7b4261","619531dcf66c91622fa1b861","61959567fd572d00df6428a7","3521.3999996185303","","d","true","[[5,242],[103,526],[397,583],[594,357],[496,73],[202,16]]","true","6","main_T2_Trial","d","img/Fire_Up_Target.gif","[""img/Fire_Down_Distractor.gif"",""img/Fire_Down_Distractor.gif"",""img/Fire_Down_Distractor.gif"",""img/Fire_Down_Distractor.gif"",""img/Fire_Down_Distractor.gif"",""img/Fire_Down_Distractor.gif"",""img/Fire_Down_Distractor.gif"",""img/Fire_Down_Distractor.gif"",""img/Fire_Down_Distractor.gif"",""img/Fire_Down_Distractor.gif"",""img/Fire_Down_Distractor.gif"",""img/Fire_Down_Distractor.gif""]","6","targetUp_distractorsDown"
"","","","","","html-keyboard-response","198","393626","0.0-14.0-0.0-0.92","5fe5a68fe7a1d236fe7b4261","619531dcf66c91622fa1b861","61959567fd572d00df6428a7","null","","null","","","","","main_T1_ITI","","","","",""
"","","","","","visual-search-circle","199","397443","0.0-14.0-0.0-1.92","5fe5a68fe7a1d236fe7b4261","619531dcf66c91622fa1b861","61959567fd572d00df6428a7","2802.5","","d","true","[[320,0],[21,187],[107,529],[458,554],[591,227]]","true","5","main_T2_Trial","d","img/Fire_Down_Target.gif","[""img/Fire_Up_Distractor.gif"",""img/Fire_Up_Distractor.gif"",""img/Fire_Up_Distractor.gif"",""img/Fire_Up_Distractor.gif"",""img/Fire_Up_Distractor.gif"",""img/Fire_Up_Distractor.gif"",""img/Fire_Up_Distractor.gif"",""img/Fire_Up_Distractor.gif"",""img/Fire_Up_Distractor.gif"",""img/Fire_Up_Distractor.gif"",""img/Fire_Up_Distractor.gif"",""img/Fire_Up_Distractor.gif""]","5","targetDown_distractorsUp"
"","","","","","html-keyboard-response","200","397448","0.0-14.0-0.0-0.93","5fe5a68fe7a1d236fe7b4261","619531dcf66c91622fa1b861","61959567fd572d00df6428a7","null","","null","","","","","main_T1_ITI","","","","",""
"","","","","","visual-search-circle","201","401027","0.0-14.0-0.0-1.93","5fe5a68fe7a1d236fe7b4261","619531dcf66c91622fa1b861","61959567fd572d00df6428a7","2555.6000003814697","","d","true","[[150,40],[40,450],[450,559],[559,150]]","true","4","main_T2_Trial","d","img/Fire_Up_Target.gif","[""img/Fire_Down_Distractor.gif"",""img/Fire_Down_Distractor.gif"",""img/Fire_Down_Distractor.gif"",""img/Fire_Down_Distractor.gif"",""img/Fire_Down_Distractor.gif"",""img/Fire_Down_Distractor.gif"",""img/Fire_Down_Distractor.gif"",""img/Fire_Down_Distractor.gif"",""img/Fire_Down_Distractor.gif"",""img/Fire_Down_Distractor.gif"",""img/Fire_Down_Distractor.gif"",""img/Fire_Down_Distractor.gif""]","4","targetUp_distractorsDown"
"","","","","","html-keyboard-response","202","401030","0.0-14.0-0.0-0.94","5fe5a68fe7a1d236fe7b4261","619531dcf66c91622fa1b861","61959567fd572d00df6428a7","null","","null","","","","","main_T1_ITI","","","","",""
"","","","","","visual-search-circle","203","403718","0.0-14.0-0.0-1.94","5fe5a68fe7a1d236fe7b4261","619531dcf66c91622fa1b861","61959567fd572d00df6428a7","1662.5","","s","true","[[595,247],[472,54],[247,4],[54,127],[4,352],[127,545],[352,595],[545,472]]","false","8","main_T2_Trial","s","img/Fire_Down_Target.gif","[""img/Fire_Up_Distractor.gif"",""img/Fire_Up_Distractor.gif"",""img/Fire_Up_Distractor.gif"",""img/Fire_Up_Distractor.gif"",""img/Fire_Up_Distractor.gif"",""img/Fire_Up_Distractor.gif"",""img/Fire_Up_Distractor.gif"",""img/Fire_Up_Distractor.gif"",""img/Fire_Up_Distractor.gif"",""img/Fire_Up_Distractor.gif"",""img/Fire_Up_Distractor.gif"",""img/Fire_Up_Distractor.gif""]","8","targetDown_distractorsUp"
"","","","","","html-keyboard-response","204","403720","0.0-14.0-0.0-0.95","5fe5a68fe7a1d236fe7b4261","619531dcf66c91622fa1b861","61959567fd572d00df6428a7","null","","null","","","","","main_T1_ITI","","","","",""
"","","","","","visual-search-circle","205","406167","0.0-14.0-0.0-1.95","5fe5a68fe7a1d236fe7b4261","619531dcf66c91622fa1b861","61959567fd572d00df6428a7","1437.3999996185303","","d","true","[[84,508],[508,515],[515,91],[91,84]]","true","4","main_T2_Trial","d","img/Fire_Up_Target.gif","[""img/Fire_Down_Distractor.gif"",""img/Fire_Down_Distractor.gif"",""img/Fire_Down_Distractor.gif"",""img/Fire_Down_Distractor.gif"",""img/Fire_Down_Distractor.gif"",""img/Fire_Down_Distractor.gif"",""img/Fire_Down_Distractor.gif"",""img/Fire_Down_Distractor.gif"",""img/Fire_Down_Distractor.gif"",""img/Fire_Down_Distractor.gif"",""img/Fire_Down_Distractor.gif"",""img/Fire_Down_Distractor.gif""]","4","targetUp_distractorsDown"
"","","","","","html-keyboard-response","206","406170","0.0-14.0-0.0-0.96","5fe5a68fe7a1d236fe7b4261","619531dcf66c91622fa1b861","61959567fd572d00df6428a7","null","","null","","","","","main_T1_ITI","","","","",""
"","","","","","visual-search-circle","207","408239","0.0-14.0-0.0-1.96","5fe5a68fe7a1d236fe7b4261","619531dcf66c91622fa1b861","61959567fd572d00df6428a7","1050.1999998092651","","d","true","[[149,559],[450,559],[600,300],[449,40],[150,40],[0,299]]","true","6","main_T2_Trial","d","img/Fire_Up_Target.gif","[""img/Fire_Down_Distractor.gif"",""img/Fire_Down_Distractor.gif"",""img/Fire_Down_Distractor.gif"",""img/Fire_Down_Distractor.gif"",""img/Fire_Down_Distractor.gif"",""img/Fire_Down_Distractor.gif"",""img/Fire_Down_Distractor.gif"",""img/Fire_Down_Distractor.gif"",""img/Fire_Down_Distractor.gif"",""img/Fire_Down_Distractor.gif"",""img/Fire_Down_Distractor.gif"",""img/Fire_Down_Distractor.gif""]","6","targetUp_distractorsDown"
"","","","","","html-keyboard-response","208","408247","0.0-14.0-0.0-0.97","5fe5a68fe7a1d236fe7b4261","619531dcf66c91622fa1b861","61959567fd572d00df6428a7","null","","null","","","","","main_T1_ITI","","","","",""
"","","","","","visual-search-circle","209","410561","0.0-14.0-0.0-1.97","5fe5a68fe7a1d236fe7b4261","619531dcf66c91622fa1b861","61959567fd572d00df6428a7","1291.1000003814697","","s","true","[[103,73],[5,357],[202,583],[496,526],[594,242],[397,16]]","false","6","main_T2_Trial","s","img/Fire_Up_Target.gif","[""img/Fire_Down_Distractor.gif"",""img/Fire_Down_Distractor.gif"",""img/Fire_Down_Distractor.gif"",""img/Fire_Down_Distractor.gif"",""img/Fire_Down_Distractor.gif"",""img/Fire_Down_Distractor.gif"",""img/Fire_Down_Distractor.gif"",""img/Fire_Down_Distractor.gif"",""img/Fire_Down_Distractor.gif"",""img/Fire_Down_Distractor.gif"",""img/Fire_Down_Distractor.gif"",""img/Fire_Down_Distractor.gif""]","6","targetUp_distractorsDown"
"","","","","","html-keyboard-response","210","410563","0.0-14.0-0.0-0.98","5fe5a68fe7a1d236fe7b4261","619531dcf66c91622fa1b861","61959567fd572d00df6428a7","null","","null","","","","","main_T1_ITI","","","","",""
"","","","","","visual-search-circle","211","413313","0.0-14.0-0.0-1.98","5fe5a68fe7a1d236fe7b4261","619531dcf66c91622fa1b861","61959567fd572d00df6428a7","1732.5","","d","true","[[227,8],[11,217],[84,508],[372,591],[588,382],[515,91]]","true","6","main_T2_Trial","d","img/Fire_Up_Target.gif","[""img/Fire_Down_Distractor.gif"",""img/Fire_Down_Distractor.gif"",""img/Fire_Down_Distractor.gif"",""img/Fire_Down_Distractor.gif"",""img/Fire_Down_Distractor.gif"",""img/Fire_Down_Distractor.gif"",""img/Fire_Down_Distractor.gif"",""img/Fire_Down_Distractor.gif"",""img/Fire_Down_Distractor.gif"",""img/Fire_Down_Distractor.gif"",""img/Fire_Down_Distractor.gif"",""img/Fire_Down_Distractor.gif""]","6","targetUp_distractorsDown"
"","","","","","html-keyboard-response","212","414367","0.0-14.0-0.0-0.99","5fe5a68fe7a1d236fe7b4261","619531dcf66c91622fa1b861","61959567fd572d00df6428a7","1052.3000001907349","Wow! You've completed 100 out of 160 trials! </p> <p>  </p><p> Take a quick break, then press any key when you're ready to continue."," ","","","","","main_T1_ITI","","","","",""
"","","","","","visual-search-circle","213","417111","0.0-14.0-0.0-1.99","5fe5a68fe7a1d236fe7b4261","619531dcf66c91622fa1b861","61959567fd572d00df6428a7","1717.3999996185303","","d","false","[[597,336],[480,60],[182,23],[2,263],[119,539],[417,576]]","false","6","main_T2_Trial","s","img/Fire_Down_Target.gif","[""img/Fire_Up_Distractor.gif"",""img/Fire_Up_Distractor.gif"",""img/Fire_Up_Distractor.gif"",""img/Fire_Up_Distractor.gif"",""img/Fire_Up_Distractor.gif"",""img/Fire_Up_Distractor.gif"",""img/Fire_Up_Distractor.gif"",""img/Fire_Up_Distractor.gif"",""img/Fire_Up_Distractor.gif"",""img/Fire_Up_Distractor.gif"",""img/Fire_Up_Distractor.gif"",""img/Fire_Up_Distractor.gif""]","6","targetDown_distractorsUp"
"","","","","","html-keyboard-response","214","417113","0.0-14.0-0.0-0.100","5fe5a68fe7a1d236fe7b4261","619531dcf66c91622fa1b861","61959567fd572d00df6428a7","null","","null","","","","","main_T1_ITI","","","","",""
"","","","","","visual-search-circle","215","419752","0.0-14.0-0.0-1.100","5fe5a68fe7a1d236fe7b4261","619531dcf66c91622fa1b861","61959567fd572d00df6428a7","1614.8000001907349","","d","false","[[581,402],[529,107],[247,4],[18,197],[70,492],[352,595]]","false","6","main_T2_Trial","s","img/Fire_Down_Target.gif","[""img/Fire_Up_Distractor.gif"",""img/Fire_Up_Distractor.gif"",""img/Fire_Up_Distractor.gif"",""img/Fire_Up_Distractor.gif"",""img/Fire_Up_Distractor.gif"",""img/Fire_Up_Distractor.gif"",""img/Fire_Up_Distractor.gif"",""img/Fire_Up_Distractor.gif"",""img/Fire_Up_Distractor.gif"",""img/Fire_Up_Distractor.gif"",""img/Fire_Up_Distractor.gif"",""img/Fire_Up_Distractor.gif""]","6","targetDown_distractorsUp"
"","","","","","html-keyboard-response","216","419756","0.0-14.0-0.0-0.101","5fe5a68fe7a1d236fe7b4261","619531dcf66c91622fa1b861","61959567fd572d00df6428a7","null","","null","","","","","main_T1_ITI","","","","",""
