"success","timeout","failed_images","failed_audio","failed_video","trial_type","trial_index","time_elapsed","internal_node_id","subject_id","study_id","session_id","rt","stimulus","response","correct","locations","target_present","set_size","task","correct_response","target","foilCM","setSizeCM","searchCondition"
"true","false","[]","[]","[]","preload","0","10947","0.0-0.0","6004c0c7e2b1453733edd35e","619531dcf66c91622fa1b861","6195a863dc4c0699dabe5243","","","","","","","","","","","","",""
"true","","","","","fullscreen","1","14277","0.0-1.0","6004c0c7e2b1453733edd35e","619531dcf66c91622fa1b861","6195a863dc4c0699dabe5243","","","","","","","","","","","","",""
"","","","","","html-keyboard-response","2","22063","0.0-2.0","6004c0c7e2b1453733edd35e","619531dcf66c91622fa1b861","6195a863dc4c0699dabe5243","7784","What a beautiful Thursday to do some awesome science! </p> <p>  </p><p> </p>
    By completing this survey or questionnaire, you are consenting to be in this research study. </p>
    Your participation is voluntary and you can stop at any time.
    <p> [Press any key to continue.] </p>
    
    "," ","","","","","","","","","",""
"","","","","","video-keyboard-response","3","61346","0.0-3.0","6004c0c7e2b1453733edd35e","619531dcf66c91622fa1b861","6195a863dc4c0699dabe5243","39271","[""video/TaskInstructions.mp4""]"," ","","","","","","","","","",""
"","","","","","html-keyboard-response","4","65513","0.0-4.0","6004c0c7e2b1453733edd35e","619531dcf66c91622fa1b861","6195a863dc4c0699dabe5243","4166","
    <p>First, we're going to do a few practice trials to make sure you understand the task. You will recieve feedback on each trial. </p>
    <p>[Press any key to begin the familiarization phase.]</p>
    "," ","","","","","","","","","",""
"","","","","","visual-search-circle","5","70866","0.0-5.0-0.0","6004c0c7e2b1453733edd35e","619531dcf66c91622fa1b861","6195a863dc4c0699dabe5243","4280","","d","true","[[258,2],[2,341],[341,597],[597,258]]","true","4","training","d","","","",""
"","","","","","html-keyboard-response","6","73616","0.0-6.0","6004c0c7e2b1453733edd35e","619531dcf66c91622fa1b861","6195a863dc4c0699dabe5243","2750"," <div style='float: center; '><img src='img/feedbackRight.png'></img> </div> "," ","","","","","","","","","",""
"","","","","","visual-search-circle","7","75495","0.0-7.0-0.0","6004c0c7e2b1453733edd35e","619531dcf66c91622fa1b861","6195a863dc4c0699dabe5243","860","","s","true","[[107,529],[529,492],[492,70],[70,107]]","false","4","training","s","","","",""
"","","","","","html-keyboard-response","8","76422","0.0-8.0","6004c0c7e2b1453733edd35e","619531dcf66c91622fa1b861","6195a863dc4c0699dabe5243","928"," <div style='float: center; '><img src='img/feedbackRight.png'></img> </div> "," ","","","","","","","","","",""
"","","","","","visual-search-circle","9","78166","0.0-9.0-0.0","6004c0c7e2b1453733edd35e","619531dcf66c91622fa1b861","6195a863dc4c0699dabe5243","737","","d","false","[[73,103],[16,397],[242,594],[526,496],[583,202],[357,5]]","false","6","training","s","","","",""
"","","","","","html-keyboard-response","10","80817","0.0-10.0","6004c0c7e2b1453733edd35e","619531dcf66c91622fa1b861","6195a863dc4c0699dabe5243","2648"," <div style='float: center;'><img src='img/feedbackWrong.png'></img> </div> "," ","","","","","","","","","",""
"","","","","","visual-search-circle","11","83043","0.0-11.0-0.0","6004c0c7e2b1453733edd35e","619531dcf66c91622fa1b861","6195a863dc4c0699dabe5243","1213","","d","true","[[589,222],[450,40],[222,10],[40,150],[10,377],[149,559],[377,589],[559,450]]","true","8","training","d","","","",""
"","","","","","html-keyboard-response","12","83844","0.0-12.0","6004c0c7e2b1453733edd35e","619531dcf66c91622fa1b861","6195a863dc4c0699dabe5243","799"," <div style='float: center; '><img src='img/feedbackRight.png'></img> </div> "," ","","","","","","","","","",""
"","","","","","video-keyboard-response","13","87329","0.0-13.0","6004c0c7e2b1453733edd35e","619531dcf66c91622fa1b861","6195a863dc4c0699dabe5243","3483","[""video/endTraining.mp4""]"," ","","","","","","","","","",""
"","","","","","html-keyboard-response","14","87330","0.0-14.0-0.0-0.0","6004c0c7e2b1453733edd35e","619531dcf66c91622fa1b861","6195a863dc4c0699dabe5243","null","","null","","","","","main_T1_ITI","","","","",""
"","","","","","visual-search-circle","15","89250","0.0-14.0-0.0-1.0","6004c0c7e2b1453733edd35e","619531dcf66c91622fa1b861","6195a863dc4c0699dabe5243","906","","s","false","[[599,294],[445,37],[145,42],[0,305],[154,562],[454,557]]","true","6","main_T2_Trial","d","img/Fire_Down_Target.gif","[""img/Fire_Up_Distractor.gif"",""img/Fire_Up_Distractor.gif"",""img/Fire_Up_Distractor.gif"",""img/Fire_Up_Distractor.gif"",""img/Fire_Up_Distractor.gif"",""img/Fire_Up_Distractor.gif"",""img/Fire_Up_Distractor.gif"",""img/Fire_Up_Distractor.gif"",""img/Fire_Up_Distractor.gif"",""img/Fire_Up_Distractor.gif"",""img/Fire_Up_Distractor.gif"",""img/Fire_Up_Distractor.gif""]","6","targetDown_distractorsUp"
"","","","","","html-keyboard-response","16","89251","0.0-14.0-0.0-0.1","6004c0c7e2b1453733edd35e","619531dcf66c91622fa1b861","6195a863dc4c0699dabe5243","null","","null","","","","","main_T1_ITI","","","","",""
"","","","","","visual-search-circle","17","91104","0.0-14.0-0.0-1.1","6004c0c7e2b1453733edd35e","619531dcf66c91622fa1b861","6195a863dc4c0699dabe5243","848","","s","true","[[51,132],[132,548],[548,467],[467,51]]","false","4","main_T2_Trial","s","img/Fire_Down_Target.gif","[""img/Fire_Up_Distractor.gif"",""img/Fire_Up_Distractor.gif"",""img/Fire_Up_Distractor.gif"",""img/Fire_Up_Distractor.gif"",""img/Fire_Up_Distractor.gif"",""img/Fire_Up_Distractor.gif"",""img/Fire_Up_Distractor.gif"",""img/Fire_Up_Distractor.gif"",""img/Fire_Up_Distractor.gif"",""img/Fire_Up_Distractor.gif"",""img/Fire_Up_Distractor.gif"",""img/Fire_Up_Distractor.gif""]","4","targetDown_distractorsUp"
"","","","","","html-keyboard-response","18","91104","0.0-14.0-0.0-0.2","6004c0c7e2b1453733edd35e","619531dcf66c91622fa1b861","6195a863dc4c0699dabe5243","null","","null","","","","","main_T1_ITI","","","","",""
"","","","","","visual-search-circle","19","93347","0.0-14.0-0.0-1.2","6004c0c7e2b1453733edd35e","619531dcf66c91622fa1b861","6195a863dc4c0699dabe5243","1230","","s","true","[[592,232],[387,13],[95,80],[7,367],[212,586],[504,519]]","false","6","main_T2_Trial","s","img/Fire_Up_Target.gif","[""img/Fire_Down_Distractor.gif"",""img/Fire_Down_Distractor.gif"",""img/Fire_Down_Distractor.gif"",""img/Fire_Down_Distractor.gif"",""img/Fire_Down_Distractor.gif"",""img/Fire_Down_Distractor.gif"",""img/Fire_Down_Distractor.gif"",""img/Fire_Down_Distractor.gif"",""img/Fire_Down_Distractor.gif"",""img/Fire_Down_Distractor.gif"",""img/Fire_Down_Distractor.gif"",""img/Fire_Down_Distractor.gif""]","6","targetUp_distractorsDown"
"","","","","","html-keyboard-response","20","93348","0.0-14.0-0.0-0.3","6004c0c7e2b1453733edd35e","619531dcf66c91622fa1b861","6195a863dc4c0699dabe5243","null","","null","","","","","main_T1_ITI","","","","",""
"","","","","","visual-search-circle","21","94952","0.0-14.0-0.0-1.3","6004c0c7e2b1453733edd35e","619531dcf66c91622fa1b861","6195a863dc4c0699dabe5243","598","","d","true","[[91,515],[440,564],[595,247],[341,2],[30,168]]","true","5","main_T2_Trial","d","img/Fire_Up_Target.gif","[""img/Fire_Down_Distractor.gif"",""img/Fire_Down_Distractor.gif"",""img/Fire_Down_Distractor.gif"",""img/Fire_Down_Distractor.gif"",""img/Fire_Down_Distractor.gif"",""img/Fire_Down_Distractor.gif"",""img/Fire_Down_Distractor.gif"",""img/Fire_Down_Distractor.gif"",""img/Fire_Down_Distractor.gif"",""img/Fire_Down_Distractor.gif"",""img/Fire_Down_Distractor.gif"",""img/Fire_Down_Distractor.gif""]","5","targetUp_distractorsDown"
"","","","","","html-keyboard-response","22","94953","0.0-14.0-0.0-0.4","6004c0c7e2b1453733edd35e","619531dcf66c91622fa1b861","6195a863dc4c0699dabe5243","null","","null","","","","","main_T1_ITI","","","","",""
"","","","","","visual-search-circle","23","97085","0.0-14.0-0.0-1.4","6004c0c7e2b1453733edd35e","619531dcf66c91622fa1b861","6195a863dc4c0699dabe5243","1122","","s","true","[[202,16],[5,242],[103,526],[397,583],[594,357],[496,73]]","false","6","main_T2_Trial","s","img/Fire_Up_Target.gif","[""img/Fire_Down_Distractor.gif"",""img/Fire_Down_Distractor.gif"",""img/Fire_Down_Distractor.gif"",""img/Fire_Down_Distractor.gif"",""img/Fire_Down_Distractor.gif"",""img/Fire_Down_Distractor.gif"",""img/Fire_Down_Distractor.gif"",""img/Fire_Down_Distractor.gif"",""img/Fire_Down_Distractor.gif"",""img/Fire_Down_Distractor.gif"",""img/Fire_Down_Distractor.gif"",""img/Fire_Down_Distractor.gif""]","6","targetUp_distractorsDown"
"","","","","","html-keyboard-response","24","97085","0.0-14.0-0.0-0.5","6004c0c7e2b1453733edd35e","619531dcf66c91622fa1b861","6195a863dc4c0699dabe5243","null","","null","","","","","main_T1_ITI","","","","",""
"","","","","","visual-search-circle","25","98940","0.0-14.0-0.0-1.5","6004c0c7e2b1453733edd35e","619531dcf66c91622fa1b861","6195a863dc4c0699dabe5243","850","","d","true","[[508,84],[261,2],[43,144],[18,404],[205,584],[464,551],[598,328]]","true","7","main_T2_Trial","d","img/Fire_Up_Target.gif","[""img/Fire_Down_Distractor.gif"",""img/Fire_Down_Distractor.gif"",""img/Fire_Down_Distractor.gif"",""img/Fire_Down_Distractor.gif"",""img/Fire_Down_Distractor.gif"",""img/Fire_Down_Distractor.gif"",""img/Fire_Down_Distractor.gif"",""img/Fire_Down_Distractor.gif"",""img/Fire_Down_Distractor.gif"",""img/Fire_Down_Distractor.gif"",""img/Fire_Down_Distractor.gif"",""img/Fire_Down_Distractor.gif""]","7","targetUp_distractorsDown"
"","","","","","html-keyboard-response","26","98940","0.0-14.0-0.0-0.6","6004c0c7e2b1453733edd35e","619531dcf66c91622fa1b861","6195a863dc4c0699dabe5243","null","","null","","","","","main_T1_ITI","","","","",""
"","","","","","visual-search-circle","27","100737","0.0-14.0-0.0-1.6","6004c0c7e2b1453733edd35e","619531dcf66c91622fa1b861","6195a863dc4c0699dabe5243","781","","d","true","[[488,66],[192,19],[3,253],[111,533],[407,580],[596,346]]","true","6","main_T2_Trial","d","img/Fire_Up_Target.gif","[""img/Fire_Down_Distractor.gif"",""img/Fire_Down_Distractor.gif"",""img/Fire_Down_Distractor.gif"",""img/Fire_Down_Distractor.gif"",""img/Fire_Down_Distractor.gif"",""img/Fire_Down_Distractor.gif"",""img/Fire_Down_Distractor.gif"",""img/Fire_Down_Distractor.gif"",""img/Fire_Down_Distractor.gif"",""img/Fire_Down_Distractor.gif"",""img/Fire_Down_Distractor.gif"",""img/Fire_Down_Distractor.gif""]","6","targetUp_distractorsDown"
"","","","","","html-keyboard-response","28","100737","0.0-14.0-0.0-0.7","6004c0c7e2b1453733edd35e","619531dcf66c91622fa1b861","6195a863dc4c0699dabe5243","null","","null","","","","","main_T1_ITI","","","","",""
"","","","","","visual-search-circle","29","102573","0.0-14.0-0.0-1.7","6004c0c7e2b1453733edd35e","619531dcf66c91622fa1b861","6195a863dc4c0699dabe5243","834","","d","true","[[40,150],[40,450],[299,600],[559,450],[559,150],[300,0]]","true","6","main_T2_Trial","d","img/Fire_Down_Target.gif","[""img/Fire_Up_Distractor.gif"",""img/Fire_Up_Distractor.gif"",""img/Fire_Up_Distractor.gif"",""img/Fire_Up_Distractor.gif"",""img/Fire_Up_Distractor.gif"",""img/Fire_Up_Distractor.gif"",""img/Fire_Up_Distractor.gif"",""img/Fire_Up_Distractor.gif"",""img/Fire_Up_Distractor.gif"",""img/Fire_Up_Distractor.gif"",""img/Fire_Up_Distractor.gif"",""img/Fire_Up_Distractor.gif""]","6","targetDown_distractorsUp"
"","","","","","html-keyboard-response","30","102574","0.0-14.0-0.0-0.8","6004c0c7e2b1453733edd35e","619531dcf66c91622fa1b861","6195a863dc4c0699dabe5243","null","","null","","","","","main_T1_ITI","","","","",""
"","","","","","visual-search-circle","31","104650","0.0-14.0-0.0-1.8","6004c0c7e2b1453733edd35e","619531dcf66c91622fa1b861","6195a863dc4c0699dabe5243","1062","","d","true","[[467,548],[588,217],[310,0],[18,197],[115,536]]","true","5","main_T2_Trial","d","img/Fire_Down_Target.gif","[""img/Fire_Up_Distractor.gif"",""img/Fire_Up_Distractor.gif"",""img/Fire_Up_Distractor.gif"",""img/Fire_Up_Distractor.gif"",""img/Fire_Up_Distractor.gif"",""img/Fire_Up_Distractor.gif"",""img/Fire_Up_Distractor.gif"",""img/Fire_Up_Distractor.gif"",""img/Fire_Up_Distractor.gif"",""img/Fire_Up_Distractor.gif"",""img/Fire_Up_Distractor.gif"",""img/Fire_Up_Distractor.gif""]","5","targetDown_distractorsUp"
"","","","","","html-keyboard-response","32","104651","0.0-14.0-0.0-0.9","6004c0c7e2b1453733edd35e","619531dcf66c91622fa1b861","6195a863dc4c0699dabe5243","null","","null","","","","","main_T1_ITI","","","","",""
"","","","","","visual-search-circle","33","106425","0.0-14.0-0.0-1.9","6004c0c7e2b1453733edd35e","619531dcf66c91622fa1b861","6195a863dc4c0699dabe5243","771","","d","true","[[0,315],[125,544],[381,588],[576,415],[563,155],[351,4],[100,75]]","true","7","main_T2_Trial","d","img/Fire_Down_Target.gif","[""img/Fire_Up_Distractor.gif"",""img/Fire_Up_Distractor.gif"",""img/Fire_Up_Distractor.gif"",""img/Fire_Up_Distractor.gif"",""img/Fire_Up_Distractor.gif"",""img/Fire_Up_Distractor.gif"",""img/Fire_Up_Distractor.gif"",""img/Fire_Up_Distractor.gif"",""img/Fire_Up_Distractor.gif"",""img/Fire_Up_Distractor.gif"",""img/Fire_Up_Distractor.gif"",""img/Fire_Up_Distractor.gif""]","7","targetDown_distractorsUp"
"","","","","","html-keyboard-response","34","106426","0.0-14.0-0.0-0.10","6004c0c7e2b1453733edd35e","619531dcf66c91622fa1b861","6195a863dc4c0699dabe5243","null","","null","","","","","main_T1_ITI","","","","",""
"","","","","","visual-search-circle","35","108446","0.0-14.0-0.0-1.10","6004c0c7e2b1453733edd35e","619531dcf66c91622fa1b861","6195a863dc4c0699dabe5243","1017","","s","false","[[586,387],[387,13],[13,212],[212,586]]","true","4","main_T2_Trial","d","img/Fire_Up_Target.gif","[""img/Fire_Down_Distractor.gif"",""img/Fire_Down_Distractor.gif"",""img/Fire_Down_Distractor.gif"",""img/Fire_Down_Distractor.gif"",""img/Fire_Down_Distractor.gif"",""img/Fire_Down_Distractor.gif"",""img/Fire_Down_Distractor.gif"",""img/Fire_Down_Distractor.gif"",""img/Fire_Down_Distractor.gif"",""img/Fire_Down_Distractor.gif"",""img/Fire_Down_Distractor.gif"",""img/Fire_Down_Distractor.gif""]","4","targetUp_distractorsDown"
"","","","","","html-keyboard-response","36","108447","0.0-14.0-0.0-0.11","6004c0c7e2b1453733edd35e","619531dcf66c91622fa1b861","6195a863dc4c0699dabe5243","null","","null","","","","","main_T1_ITI","","","","",""
"","","","","","visual-search-circle","37","110249","0.0-14.0-0.0-1.11","6004c0c7e2b1453733edd35e","619531dcf66c91622fa1b861","6195a863dc4c0699dabe5243","792","","d","true","[[567,436],[551,136],[284,0],[32,163],[48,463],[315,599]]","true","6","main_T2_Trial","d","img/Fire_Up_Target.gif","[""img/Fire_Down_Distractor.gif"",""img/Fire_Down_Distractor.gif"",""img/Fire_Down_Distractor.gif"",""img/Fire_Down_Distractor.gif"",""img/Fire_Down_Distractor.gif"",""img/Fire_Down_Distractor.gif"",""img/Fire_Down_Distractor.gif"",""img/Fire_Down_Distractor.gif"",""img/Fire_Down_Distractor.gif"",""img/Fire_Down_Distractor.gif"",""img/Fire_Down_Distractor.gif"",""img/Fire_Down_Distractor.gif""]","6","targetUp_distractorsDown"
"","","","","","html-keyboard-response","38","110249","0.0-14.0-0.0-0.12","6004c0c7e2b1453733edd35e","619531dcf66c91622fa1b861","6195a863dc4c0699dabe5243","null","","null","","","","","main_T1_ITI","","","","",""
"","","","","","visual-search-circle","39","112010","0.0-14.0-0.0-1.12","6004c0c7e2b1453733edd35e","619531dcf66c91622fa1b861","6195a863dc4c0699dabe5243","744","","s","true","[[598,268],[268,1],[1,331],[331,598]]","false","4","main_T2_Trial","s","img/Fire_Up_Target.gif","[""img/Fire_Down_Distractor.gif"",""img/Fire_Down_Distractor.gif"",""img/Fire_Down_Distractor.gif"",""img/Fire_Down_Distractor.gif"",""img/Fire_Down_Distractor.gif"",""img/Fire_Down_Distractor.gif"",""img/Fire_Down_Distractor.gif"",""img/Fire_Down_Distractor.gif"",""img/Fire_Down_Distractor.gif"",""img/Fire_Down_Distractor.gif"",""img/Fire_Down_Distractor.gif"",""img/Fire_Down_Distractor.gif""]","4","targetUp_distractorsDown"
"","","","","","html-keyboard-response","40","112010","0.0-14.0-0.0-0.13","6004c0c7e2b1453733edd35e","619531dcf66c91622fa1b861","6195a863dc4c0699dabe5243","null","","null","","","","","main_T1_ITI","","","","",""
"","","","","","visual-search-circle","41","113734","0.0-14.0-0.0-1.13","6004c0c7e2b1453733edd35e","619531dcf66c91622fa1b861","6195a863dc4c0699dabe5243","716","","d","true","[[268,1],[6,237],[149,559],[500,522],[574,177]]","true","5","main_T2_Trial","d","img/Fire_Up_Target.gif","[""img/Fire_Down_Distractor.gif"",""img/Fire_Down_Distractor.gif"",""img/Fire_Down_Distractor.gif"",""img/Fire_Down_Distractor.gif"",""img/Fire_Down_Distractor.gif"",""img/Fire_Down_Distractor.gif"",""img/Fire_Down_Distractor.gif"",""img/Fire_Down_Distractor.gif"",""img/Fire_Down_Distractor.gif"",""img/Fire_Down_Distractor.gif"",""img/Fire_Down_Distractor.gif"",""img/Fire_Down_Distractor.gif""]","5","targetUp_distractorsDown"
"","","","","","html-keyboard-response","42","113734","0.0-14.0-0.0-0.14","6004c0c7e2b1453733edd35e","619531dcf66c91622fa1b861","6195a863dc4c0699dabe5243","null","","null","","","","","main_T1_ITI","","","","",""
"","","","","","visual-search-circle","43","115797","0.0-14.0-0.0-1.14","6004c0c7e2b1453733edd35e","619531dcf66c91622fa1b861","6195a863dc4c0699dabe5243","1060","","s","false","[[598,268],[268,1],[1,331],[331,598]]","true","4","main_T2_Trial","d","img/Fire_Up_Target.gif","[""img/Fire_Down_Distractor.gif"",""img/Fire_Down_Distractor.gif"",""img/Fire_Down_Distractor.gif"",""img/Fire_Down_Distractor.gif"",""img/Fire_Down_Distractor.gif"",""img/Fire_Down_Distractor.gif"",""img/Fire_Down_Distractor.gif"",""img/Fire_Down_Distractor.gif"",""img/Fire_Down_Distractor.gif"",""img/Fire_Down_Distractor.gif"",""img/Fire_Down_Distractor.gif"",""img/Fire_Down_Distractor.gif""]","4","targetUp_distractorsDown"
"","","","","","html-keyboard-response","44","115798","0.0-14.0-0.0-0.15","6004c0c7e2b1453733edd35e","619531dcf66c91622fa1b861","6195a863dc4c0699dabe5243","null","","null","","","","","main_T1_ITI","","","","",""
"","","","","","visual-search-circle","45","118026","0.0-14.0-0.0-1.15","6004c0c7e2b1453733edd35e","619531dcf66c91622fa1b861","6195a863dc4c0699dabe5243","1222","","s","true","[[207,585],[465,550],[598,326],[507,83],[259,2],[42,146],[19,405]]","false","7","main_T2_Trial","s","img/Fire_Down_Target.gif","[""img/Fire_Up_Distractor.gif"",""img/Fire_Up_Distractor.gif"",""img/Fire_Up_Distractor.gif"",""img/Fire_Up_Distractor.gif"",""img/Fire_Up_Distractor.gif"",""img/Fire_Up_Distractor.gif"",""img/Fire_Up_Distractor.gif"",""img/Fire_Up_Distractor.gif"",""img/Fire_Up_Distractor.gif"",""img/Fire_Up_Distractor.gif"",""img/Fire_Up_Distractor.gif"",""img/Fire_Up_Distractor.gif""]","7","targetDown_distractorsUp"
"","","","","","html-keyboard-response","46","118026","0.0-14.0-0.0-0.16","6004c0c7e2b1453733edd35e","619531dcf66c91622fa1b861","6195a863dc4c0699dabe5243","null","","null","","","","","main_T1_ITI","","","","",""
"","","","","","visual-search-circle","47","120049","0.0-14.0-0.0-1.16","6004c0c7e2b1453733edd35e","619531dcf66c91622fa1b861","6195a863dc4c0699dabe5243","1014","","d","true","[[504,519],[599,310],[519,95],[310,0],[95,80],[0,289],[80,504],[289,599]]","true","8","main_T2_Trial","d","img/Fire_Down_Target.gif","[""img/Fire_Up_Distractor.gif"",""img/Fire_Up_Distractor.gif"",""img/Fire_Up_Distractor.gif"",""img/Fire_Up_Distractor.gif"",""img/Fire_Up_Distractor.gif"",""img/Fire_Up_Distractor.gif"",""img/Fire_Up_Distractor.gif"",""img/Fire_Up_Distractor.gif"",""img/Fire_Up_Distractor.gif"",""img/Fire_Up_Distractor.gif"",""img/Fire_Up_Distractor.gif"",""img/Fire_Up_Distractor.gif""]","8","targetDown_distractorsUp"
"","","","","","html-keyboard-response","48","120049","0.0-14.0-0.0-0.17","6004c0c7e2b1453733edd35e","619531dcf66c91622fa1b861","6195a863dc4c0699dabe5243","null","","null","","","","","main_T1_ITI","","","","",""
"","","","","","visual-search-circle","49","121957","0.0-14.0-0.0-1.17","6004c0c7e2b1453733edd35e","619531dcf66c91622fa1b861","6195a863dc4c0699dabe5243","894","","d","true","[[515,508],[564,159],[247,4],[2,258],[168,569]]","true","5","main_T2_Trial","d","img/Fire_Up_Target.gif","[""img/Fire_Down_Distractor.gif"",""img/Fire_Down_Distractor.gif"",""img/Fire_Down_Distractor.gif"",""img/Fire_Down_Distractor.gif"",""img/Fire_Down_Distractor.gif"",""img/Fire_Down_Distractor.gif"",""img/Fire_Down_Distractor.gif"",""img/Fire_Down_Distractor.gif"",""img/Fire_Down_Distractor.gif"",""img/Fire_Down_Distractor.gif"",""img/Fire_Down_Distractor.gif"",""img/Fire_Down_Distractor.gif""]","5","targetUp_distractorsDown"
"","","","","","html-keyboard-response","50","121957","0.0-14.0-0.0-0.18","6004c0c7e2b1453733edd35e","619531dcf66c91622fa1b861","6195a863dc4c0699dabe5243","null","","null","","","","","main_T1_ITI","","","","",""
"","","","","","visual-search-circle","51","123957","0.0-14.0-0.0-1.18","6004c0c7e2b1453733edd35e","619531dcf66c91622fa1b861","6195a863dc4c0699dabe5243","989","","s","true","[[40,150],[149,559],[559,450],[449,40]]","false","4","main_T2_Trial","s","img/Fire_Up_Target.gif","[""img/Fire_Down_Distractor.gif"",""img/Fire_Down_Distractor.gif"",""img/Fire_Down_Distractor.gif"",""img/Fire_Down_Distractor.gif"",""img/Fire_Down_Distractor.gif"",""img/Fire_Down_Distractor.gif"",""img/Fire_Down_Distractor.gif"",""img/Fire_Down_Distractor.gif"",""img/Fire_Down_Distractor.gif"",""img/Fire_Down_Distractor.gif"",""img/Fire_Down_Distractor.gif"",""img/Fire_Down_Distractor.gif""]","4","targetUp_distractorsDown"
"","","","","","html-keyboard-response","52","127249","0.0-14.0-0.0-0.19","6004c0c7e2b1453733edd35e","619531dcf66c91622fa1b861","6195a863dc4c0699dabe5243","3292","Wow! You've completed 20 out of 160 trials! </p> <p>  </p><p> Take a quick break, then press any key when you're ready to continue."," ","","","","","main_T1_ITI","","","","",""
"","","","","","visual-search-circle","53","129635","0.0-14.0-0.0-1.19","6004c0c7e2b1453733edd35e","619531dcf66c91622fa1b861","6195a863dc4c0699dabe5243","1371","","s","true","[[496,526],[599,320],[526,103],[320,0],[103,73],[0,279],[73,496],[279,599]]","false","8","main_T2_Trial","s","img/Fire_Up_Target.gif","[""img/Fire_Down_Distractor.gif"",""img/Fire_Down_Distractor.gif"",""img/Fire_Down_Distractor.gif"",""img/Fire_Down_Distractor.gif"",""img/Fire_Down_Distractor.gif"",""img/Fire_Down_Distractor.gif"",""img/Fire_Down_Distractor.gif"",""img/Fire_Down_Distractor.gif"",""img/Fire_Down_Distractor.gif"",""img/Fire_Down_Distractor.gif"",""img/Fire_Down_Distractor.gif"",""img/Fire_Down_Distractor.gif""]","8","targetUp_distractorsDown"
"","","","","","html-keyboard-response","54","129636","0.0-14.0-0.0-0.20","6004c0c7e2b1453733edd35e","619531dcf66c91622fa1b861","6195a863dc4c0699dabe5243","null","","null","","","","","main_T1_ITI","","","","",""
"","","","","","visual-search-circle","55","131366","0.0-14.0-0.0-1.20","6004c0c7e2b1453733edd35e","619531dcf66c91622fa1b861","6195a863dc4c0699dabe5243","715","","s","true","[[336,597],[597,263],[263,2],[2,336]]","false","4","main_T2_Trial","s","img/Fire_Up_Target.gif","[""img/Fire_Down_Distractor.gif"",""img/Fire_Down_Distractor.gif"",""img/Fire_Down_Distractor.gif"",""img/Fire_Down_Distractor.gif"",""img/Fire_Down_Distractor.gif"",""img/Fire_Down_Distractor.gif"",""img/Fire_Down_Distractor.gif"",""img/Fire_Down_Distractor.gif"",""img/Fire_Down_Distractor.gif"",""img/Fire_Down_Distractor.gif"",""img/Fire_Down_Distractor.gif"",""img/Fire_Down_Distractor.gif""]","4","targetUp_distractorsDown"
"","","","","","html-keyboard-response","56","131366","0.0-14.0-0.0-0.21","6004c0c7e2b1453733edd35e","619531dcf66c91622fa1b861","6195a863dc4c0699dabe5243","null","","null","","","","","main_T1_ITI","","","","",""
"","","","","","visual-search-circle","57","133076","0.0-14.0-0.0-1.21","6004c0c7e2b1453733edd35e","619531dcf66c91622fa1b861","6195a863dc4c0699dabe5243","703","","d","true","[[484,63],[187,21],[2,258],[115,536],[412,578],[597,341]]","true","6","main_T2_Trial","d","img/Fire_Up_Target.gif","[""img/Fire_Down_Distractor.gif"",""img/Fire_Down_Distractor.gif"",""img/Fire_Down_Distractor.gif"",""img/Fire_Down_Distractor.gif"",""img/Fire_Down_Distractor.gif"",""img/Fire_Down_Distractor.gif"",""img/Fire_Down_Distractor.gif"",""img/Fire_Down_Distractor.gif"",""img/Fire_Down_Distractor.gif"",""img/Fire_Down_Distractor.gif"",""img/Fire_Down_Distractor.gif"",""img/Fire_Down_Distractor.gif""]","6","targetUp_distractorsDown"
"","","","","","html-keyboard-response","58","133077","0.0-14.0-0.0-0.22","6004c0c7e2b1453733edd35e","619531dcf66c91622fa1b861","6195a863dc4c0699dabe5243","null","","null","","","","","main_T1_ITI","","","","",""
"","","","","","visual-search-circle","59","136028","0.0-14.0-0.0-1.22","6004c0c7e2b1453733edd35e","619531dcf66c91622fa1b861","6195a863dc4c0699dabe5243","1939","","s","false","[[504,80],[289,0],[80,95],[0,310],[95,519],[310,599],[519,504],[599,289]]","true","8","main_T2_Trial","d","img/Fire_Up_Target.gif","[""img/Fire_Down_Distractor.gif"",""img/Fire_Down_Distractor.gif"",""img/Fire_Down_Distractor.gif"",""img/Fire_Down_Distractor.gif"",""img/Fire_Down_Distractor.gif"",""img/Fire_Down_Distractor.gif"",""img/Fire_Down_Distractor.gif"",""img/Fire_Down_Distractor.gif"",""img/Fire_Down_Distractor.gif"",""img/Fire_Down_Distractor.gif"",""img/Fire_Down_Distractor.gif"",""img/Fire_Down_Distractor.gif""]","8","targetUp_distractorsDown"
"","","","","","html-keyboard-response","60","136028","0.0-14.0-0.0-0.23","6004c0c7e2b1453733edd35e","619531dcf66c91622fa1b861","6195a863dc4c0699dabe5243","null","","null","","","","","main_T1_ITI","","","","",""
"","","","","","visual-search-circle","61","137875","0.0-14.0-0.0-1.23","6004c0c7e2b1453733edd35e","619531dcf66c91622fa1b861","6195a863dc4c0699dabe5243","831","","d","true","[[25,422],[422,574],[574,177],[177,25]]","true","4","main_T2_Trial","d","img/Fire_Up_Target.gif","[""img/Fire_Down_Distractor.gif"",""img/Fire_Down_Distractor.gif"",""img/Fire_Down_Distractor.gif"",""img/Fire_Down_Distractor.gif"",""img/Fire_Down_Distractor.gif"",""img/Fire_Down_Distractor.gif"",""img/Fire_Down_Distractor.gif"",""img/Fire_Down_Distractor.gif"",""img/Fire_Down_Distractor.gif"",""img/Fire_Down_Distractor.gif"",""img/Fire_Down_Distractor.gif"",""img/Fire_Down_Distractor.gif""]","4","targetUp_distractorsDown"
"","","","","","html-keyboard-response","62","137875","0.0-14.0-0.0-0.24","6004c0c7e2b1453733edd35e","619531dcf66c91622fa1b861","6195a863dc4c0699dabe5243","null","","null","","","","","main_T1_ITI","","","","",""
"","","","","","visual-search-circle","63","139749","0.0-14.0-0.0-1.24","6004c0c7e2b1453733edd35e","619531dcf66c91622fa1b861","6195a863dc4c0699dabe5243","867","","d","true","[[436,32],[32,163],[163,567],[567,436]]","true","4","main_T2_Trial","d","img/Fire_Down_Target.gif","[""img/Fire_Up_Distractor.gif"",""img/Fire_Up_Distractor.gif"",""img/Fire_Up_Distractor.gif"",""img/Fire_Up_Distractor.gif"",""img/Fire_Up_Distractor.gif"",""img/Fire_Up_Distractor.gif"",""img/Fire_Up_Distractor.gif"",""img/Fire_Up_Distractor.gif"",""img/Fire_Up_Distractor.gif"",""img/Fire_Up_Distractor.gif"",""img/Fire_Up_Distractor.gif"",""img/Fire_Up_Distractor.gif""]","4","targetDown_distractorsUp"
"","","","","","html-keyboard-response","64","139751","0.0-14.0-0.0-0.25","6004c0c7e2b1453733edd35e","619531dcf66c91622fa1b861","6195a863dc4c0699dabe5243","null","","null","","","","","main_T1_ITI","","","","",""
"","","","","","visual-search-circle","65","141501","0.0-14.0-0.0-1.25","6004c0c7e2b1453733edd35e","619531dcf66c91622fa1b861","6195a863dc4c0699dabe5243","747","","s","true","[[320,599],[599,279],[279,0],[0,320]]","false","4","main_T2_Trial","s","img/Fire_Up_Target.gif","[""img/Fire_Down_Distractor.gif"",""img/Fire_Down_Distractor.gif"",""img/Fire_Down_Distractor.gif"",""img/Fire_Down_Distractor.gif"",""img/Fire_Down_Distractor.gif"",""img/Fire_Down_Distractor.gif"",""img/Fire_Down_Distractor.gif"",""img/Fire_Down_Distractor.gif"",""img/Fire_Down_Distractor.gif"",""img/Fire_Down_Distractor.gif"",""img/Fire_Down_Distractor.gif"",""img/Fire_Down_Distractor.gif""]","4","targetUp_distractorsDown"
"","","","","","html-keyboard-response","66","141501","0.0-14.0-0.0-0.26","6004c0c7e2b1453733edd35e","619531dcf66c91622fa1b861","6195a863dc4c0699dabe5243","null","","null","","","","","main_T1_ITI","","","","",""
"","","","","","visual-search-circle","67","143992","0.0-14.0-0.0-1.26","6004c0c7e2b1453733edd35e","619531dcf66c91622fa1b861","6195a863dc4c0699dabe5243","1478","","s","false","[[476,57],[177,25],[1,268],[123,542],[422,574],[598,331]]","true","6","main_T2_Trial","d","img/Fire_Up_Target.gif","[""img/Fire_Down_Distractor.gif"",""img/Fire_Down_Distractor.gif"",""img/Fire_Down_Distractor.gif"",""img/Fire_Down_Distractor.gif"",""img/Fire_Down_Distractor.gif"",""img/Fire_Down_Distractor.gif"",""img/Fire_Down_Distractor.gif"",""img/Fire_Down_Distractor.gif"",""img/Fire_Down_Distractor.gif"",""img/Fire_Down_Distractor.gif"",""img/Fire_Down_Distractor.gif"",""img/Fire_Down_Distractor.gif""]","6","targetUp_distractorsDown"
"","","","","","html-keyboard-response","68","143993","0.0-14.0-0.0-0.27","6004c0c7e2b1453733edd35e","619531dcf66c91622fa1b861","6195a863dc4c0699dabe5243","null","","null","","","","","main_T1_ITI","","","","",""
"","","","","","visual-search-circle","69","145859","0.0-14.0-0.0-1.27","6004c0c7e2b1453733edd35e","619531dcf66c91622fa1b861","6195a863dc4c0699dabe5243","857","","s","true","[[80,504],[426,571],[597,263],[357,5],[37,154]]","false","5","main_T2_Trial","s","img/Fire_Down_Target.gif","[""img/Fire_Up_Distractor.gif"",""img/Fire_Up_Distractor.gif"",""img/Fire_Up_Distractor.gif"",""img/Fire_Up_Distractor.gif"",""img/Fire_Up_Distractor.gif"",""img/Fire_Up_Distractor.gif"",""img/Fire_Up_Distractor.gif"",""img/Fire_Up_Distractor.gif"",""img/Fire_Up_Distractor.gif"",""img/Fire_Up_Distractor.gif"",""img/Fire_Up_Distractor.gif"",""img/Fire_Up_Distractor.gif""]","5","targetDown_distractorsUp"
"","","","","","html-keyboard-response","70","145859","0.0-14.0-0.0-0.28","6004c0c7e2b1453733edd35e","619531dcf66c91622fa1b861","6195a863dc4c0699dabe5243","null","","null","","","","","main_T1_ITI","","","","",""
"","","","","","visual-search-circle","71","147777","0.0-14.0-0.0-1.28","6004c0c7e2b1453733edd35e","619531dcf66c91622fa1b861","6195a863dc4c0699dabe5243","910","","d","true","[[362,6],[40,150],[77,500],[422,574],[598,268]]","true","5","main_T2_Trial","d","img/Fire_Down_Target.gif","[""img/Fire_Up_Distractor.gif"",""img/Fire_Up_Distractor.gif"",""img/Fire_Up_Distractor.gif"",""img/Fire_Up_Distractor.gif"",""img/Fire_Up_Distractor.gif"",""img/Fire_Up_Distractor.gif"",""img/Fire_Up_Distractor.gif"",""img/Fire_Up_Distractor.gif"",""img/Fire_Up_Distractor.gif"",""img/Fire_Up_Distractor.gif"",""img/Fire_Up_Distractor.gif"",""img/Fire_Up_Distractor.gif""]","5","targetDown_distractorsUp"
"","","","","","html-keyboard-response","72","147777","0.0-14.0-0.0-0.29","6004c0c7e2b1453733edd35e","619531dcf66c91622fa1b861","6195a863dc4c0699dabe5243","null","","null","","","","","main_T1_ITI","","","","",""
"","","","","","visual-search-circle","73","149448","0.0-14.0-0.0-1.29","6004c0c7e2b1453733edd35e","619531dcf66c91622fa1b861","6195a863dc4c0699dabe5243","655","","d","true","[[357,5],[5,242],[242,594],[594,357]]","true","4","main_T2_Trial","d","img/Fire_Down_Target.gif","[""img/Fire_Up_Distractor.gif"",""img/Fire_Up_Distractor.gif"",""img/Fire_Up_Distractor.gif"",""img/Fire_Up_Distractor.gif"",""img/Fire_Up_Distractor.gif"",""img/Fire_Up_Distractor.gif"",""img/Fire_Up_Distractor.gif"",""img/Fire_Up_Distractor.gif"",""img/Fire_Up_Distractor.gif"",""img/Fire_Up_Distractor.gif"",""img/Fire_Up_Distractor.gif"",""img/Fire_Up_Distractor.gif""]","4","targetDown_distractorsUp"
"","","","","","html-keyboard-response","74","149449","0.0-14.0-0.0-0.30","6004c0c7e2b1453733edd35e","619531dcf66c91622fa1b861","6195a863dc4c0699dabe5243","null","","null","","","","","main_T1_ITI","","","","",""
"","","","","","visual-search-circle","75","152157","0.0-14.0-0.0-1.30","6004c0c7e2b1453733edd35e","619531dcf66c91622fa1b861","6195a863dc4c0699dabe5243","1704","","s","true","[[35,159],[45,458],[310,599],[564,440],[554,141],[289,0]]","false","6","main_T2_Trial","s","img/Fire_Up_Target.gif","[""img/Fire_Down_Distractor.gif"",""img/Fire_Down_Distractor.gif"",""img/Fire_Down_Distractor.gif"",""img/Fire_Down_Distractor.gif"",""img/Fire_Down_Distractor.gif"",""img/Fire_Down_Distractor.gif"",""img/Fire_Down_Distractor.gif"",""img/Fire_Down_Distractor.gif"",""img/Fire_Down_Distractor.gif"",""img/Fire_Down_Distractor.gif"",""img/Fire_Down_Distractor.gif"",""img/Fire_Down_Distractor.gif""]","6","targetUp_distractorsDown"
"","","","","","html-keyboard-response","76","152157","0.0-14.0-0.0-0.31","6004c0c7e2b1453733edd35e","619531dcf66c91622fa1b861","6195a863dc4c0699dabe5243","null","","null","","","","","main_T1_ITI","","","","",""
"","","","","","visual-search-circle","77","153985","0.0-14.0-0.0-1.31","6004c0c7e2b1453733edd35e","619531dcf66c91622fa1b861","6195a863dc4c0699dabe5243","822","","s","true","[[2,341],[247,595],[564,440],[515,91],[168,30]]","false","5","main_T2_Trial","s","img/Fire_Up_Target.gif","[""img/Fire_Down_Distractor.gif"",""img/Fire_Down_Distractor.gif"",""img/Fire_Down_Distractor.gif"",""img/Fire_Down_Distractor.gif"",""img/Fire_Down_Distractor.gif"",""img/Fire_Down_Distractor.gif"",""img/Fire_Down_Distractor.gif"",""img/Fire_Down_Distractor.gif"",""img/Fire_Down_Distractor.gif"",""img/Fire_Down_Distractor.gif"",""img/Fire_Down_Distractor.gif"",""img/Fire_Down_Distractor.gif""]","5","targetUp_distractorsDown"
"","","","","","html-keyboard-response","78","153985","0.0-14.0-0.0-0.32","6004c0c7e2b1453733edd35e","619531dcf66c91622fa1b861","6195a863dc4c0699dabe5243","null","","null","","","","","main_T1_ITI","","","","",""
"","","","","","visual-search-circle","79","155994","0.0-14.0-0.0-1.32","6004c0c7e2b1453733edd35e","619531dcf66c91622fa1b861","6195a863dc4c0699dabe5243","1000","","s","true","[[168,30],[16,202],[30,431],[202,583],[431,569],[583,397],[569,168],[397,16]]","false","8","main_T2_Trial","s","img/Fire_Down_Target.gif","[""img/Fire_Up_Distractor.gif"",""img/Fire_Up_Distractor.gif"",""img/Fire_Up_Distractor.gif"",""img/Fire_Up_Distractor.gif"",""img/Fire_Up_Distractor.gif"",""img/Fire_Up_Distractor.gif"",""img/Fire_Up_Distractor.gif"",""img/Fire_Up_Distractor.gif"",""img/Fire_Up_Distractor.gif"",""img/Fire_Up_Distractor.gif"",""img/Fire_Up_Distractor.gif"",""img/Fire_Up_Distractor.gif""]","8","targetDown_distractorsUp"
"","","","","","html-keyboard-response","80","155995","0.0-14.0-0.0-0.33","6004c0c7e2b1453733edd35e","619531dcf66c91622fa1b861","6195a863dc4c0699dabe5243","null","","null","","","","","main_T1_ITI","","","","",""
"","","","","","visual-search-circle","81","157716","0.0-14.0-0.0-1.33","6004c0c7e2b1453733edd35e","619531dcf66c91622fa1b861","6195a863dc4c0699dabe5243","707","","s","true","[[60,119],[9,374],[177,573],[437,566],[594,358],[529,106],[291,0]]","false","7","main_T2_Trial","s","img/Fire_Down_Target.gif","[""img/Fire_Up_Distractor.gif"",""img/Fire_Up_Distractor.gif"",""img/Fire_Up_Distractor.gif"",""img/Fire_Up_Distractor.gif"",""img/Fire_Up_Distractor.gif"",""img/Fire_Up_Distractor.gif"",""img/Fire_Up_Distractor.gif"",""img/Fire_Up_Distractor.gif"",""img/Fire_Up_Distractor.gif"",""img/Fire_Up_Distractor.gif"",""img/Fire_Up_Distractor.gif"",""img/Fire_Up_Distractor.gif""]","7","targetDown_distractorsUp"
"","","","","","html-keyboard-response","82","157716","0.0-14.0-0.0-0.34","6004c0c7e2b1453733edd35e","619531dcf66c91622fa1b861","6195a863dc4c0699dabe5243","null","","null","","","","","main_T1_ITI","","","","",""
"","","","","","visual-search-circle","83","159675","0.0-14.0-0.0-1.34","6004c0c7e2b1453733edd35e","619531dcf66c91622fa1b861","6195a863dc4c0699dabe5243","947","","d","false","[[564,159],[247,4],[2,258],[168,569],[515,508]]","false","5","main_T2_Trial","s","img/Fire_Down_Target.gif","[""img/Fire_Up_Distractor.gif"",""img/Fire_Up_Distractor.gif"",""img/Fire_Up_Distractor.gif"",""img/Fire_Up_Distractor.gif"",""img/Fire_Up_Distractor.gif"",""img/Fire_Up_Distractor.gif"",""img/Fire_Up_Distractor.gif"",""img/Fire_Up_Distractor.gif"",""img/Fire_Up_Distractor.gif"",""img/Fire_Up_Distractor.gif"",""img/Fire_Up_Distractor.gif"",""img/Fire_Up_Distractor.gif""]","5","targetDown_distractorsUp"
"","","","","","html-keyboard-response","84","159675","0.0-14.0-0.0-0.35","6004c0c7e2b1453733edd35e","619531dcf66c91622fa1b861","6195a863dc4c0699dabe5243","null","","null","","","","","main_T1_ITI","","","","",""
"","","","","","visual-search-circle","85","161406","0.0-14.0-0.0-1.35","6004c0c7e2b1453733edd35e","619531dcf66c91622fa1b861","6195a863dc4c0699dabe5243","718","","d","true","[[346,3],[32,163],[87,512],[436,567],[596,253]]","true","5","main_T2_Trial","d","img/Fire_Up_Target.gif","[""img/Fire_Down_Distractor.gif"",""img/Fire_Down_Distractor.gif"",""img/Fire_Down_Distractor.gif"",""img/Fire_Down_Distractor.gif"",""img/Fire_Down_Distractor.gif"",""img/Fire_Down_Distractor.gif"",""img/Fire_Down_Distractor.gif"",""img/Fire_Down_Distractor.gif"",""img/Fire_Down_Distractor.gif"",""img/Fire_Down_Distractor.gif"",""img/Fire_Down_Distractor.gif"",""img/Fire_Down_Distractor.gif""]","5","targetUp_distractorsDown"
"","","","","","html-keyboard-response","86","161406","0.0-14.0-0.0-0.36","6004c0c7e2b1453733edd35e","619531dcf66c91622fa1b861","6195a863dc4c0699dabe5243","null","","null","","","","","main_T1_ITI","","","","",""
"","","","","","visual-search-circle","87","163081","0.0-14.0-0.0-1.36","6004c0c7e2b1453733edd35e","619531dcf66c91622fa1b861","6195a863dc4c0699dabe5243","669","","d","true","[[593,237],[331,1],[25,177],[99,522],[450,559]]","true","5","main_T2_Trial","d","img/Fire_Down_Target.gif","[""img/Fire_Up_Distractor.gif"",""img/Fire_Up_Distractor.gif"",""img/Fire_Up_Distractor.gif"",""img/Fire_Up_Distractor.gif"",""img/Fire_Up_Distractor.gif"",""img/Fire_Up_Distractor.gif"",""img/Fire_Up_Distractor.gif"",""img/Fire_Up_Distractor.gif"",""img/Fire_Up_Distractor.gif"",""img/Fire_Up_Distractor.gif"",""img/Fire_Up_Distractor.gif"",""img/Fire_Up_Distractor.gif""]","5","targetDown_distractorsUp"
"","","","","","html-keyboard-response","88","163082","0.0-14.0-0.0-0.37","6004c0c7e2b1453733edd35e","619531dcf66c91622fa1b861","6195a863dc4c0699dabe5243","null","","null","","","","","main_T1_ITI","","","","",""
"","","","","","visual-search-circle","89","164774","0.0-14.0-0.0-1.37","6004c0c7e2b1453733edd35e","619531dcf66c91622fa1b861","6195a863dc4c0699dabe5243","681","","d","true","[[1,268],[66,488],[268,598],[488,533],[598,331],[533,111],[331,1],[111,66]]","true","8","main_T2_Trial","d","img/Fire_Down_Target.gif","[""img/Fire_Up_Distractor.gif"",""img/Fire_Up_Distractor.gif"",""img/Fire_Up_Distractor.gif"",""img/Fire_Up_Distractor.gif"",""img/Fire_Up_Distractor.gif"",""img/Fire_Up_Distractor.gif"",""img/Fire_Up_Distractor.gif"",""img/Fire_Up_Distractor.gif"",""img/Fire_Up_Distractor.gif"",""img/Fire_Up_Distractor.gif"",""img/Fire_Up_Distractor.gif"",""img/Fire_Up_Distractor.gif""]","8","targetDown_distractorsUp"
"","","","","","html-keyboard-response","90","164775","0.0-14.0-0.0-0.38","6004c0c7e2b1453733edd35e","619531dcf66c91622fa1b861","6195a863dc4c0699dabe5243","null","","null","","","","","main_T1_ITI","","","","",""
"","","","","","visual-search-circle","91","166460","0.0-14.0-0.0-1.38","6004c0c7e2b1453733edd35e","619531dcf66c91622fa1b861","6195a863dc4c0699dabe5243","678","","s","true","[[159,564],[387,586],[564,440],[586,212],[440,35],[212,13],[35,159],[13,387]]","false","8","main_T2_Trial","s","img/Fire_Up_Target.gif","[""img/Fire_Down_Distractor.gif"",""img/Fire_Down_Distractor.gif"",""img/Fire_Down_Distractor.gif"",""img/Fire_Down_Distractor.gif"",""img/Fire_Down_Distractor.gif"",""img/Fire_Down_Distractor.gif"",""img/Fire_Down_Distractor.gif"",""img/Fire_Down_Distractor.gif"",""img/Fire_Down_Distractor.gif"",""img/Fire_Down_Distractor.gif"",""img/Fire_Down_Distractor.gif"",""img/Fire_Down_Distractor.gif""]","8","targetUp_distractorsDown"
"","","","","","html-keyboard-response","92","170594","0.0-14.0-0.0-0.39","6004c0c7e2b1453733edd35e","619531dcf66c91622fa1b861","6195a863dc4c0699dabe5243","4131","Wow! You've completed 40 out of 160 trials! </p> <p>  </p><p> Take a quick break, then press any key when you're ready to continue."," ","","","","","main_T1_ITI","","","","",""
"","","","","","visual-search-circle","93","172314","0.0-14.0-0.0-1.39","6004c0c7e2b1453733edd35e","619531dcf66c91622fa1b861","6195a863dc4c0699dabe5243","716","","d","true","[[28,173],[31,433],[236,593],[489,532],[599,296],[484,63],[229,8]]","true","7","main_T2_Trial","d","img/Fire_Up_Target.gif","[""img/Fire_Down_Distractor.gif"",""img/Fire_Down_Distractor.gif"",""img/Fire_Down_Distractor.gif"",""img/Fire_Down_Distractor.gif"",""img/Fire_Down_Distractor.gif"",""img/Fire_Down_Distractor.gif"",""img/Fire_Down_Distractor.gif"",""img/Fire_Down_Distractor.gif"",""img/Fire_Down_Distractor.gif"",""img/Fire_Down_Distractor.gif"",""img/Fire_Down_Distractor.gif"",""img/Fire_Down_Distractor.gif""]","7","targetUp_distractorsDown"
"","","","","","html-keyboard-response","94","172314","0.0-14.0-0.0-0.40","6004c0c7e2b1453733edd35e","619531dcf66c91622fa1b861","6195a863dc4c0699dabe5243","null","","null","","","","","main_T1_ITI","","","","",""
"","","","","","visual-search-circle","95","174171","0.0-14.0-0.0-1.40","6004c0c7e2b1453733edd35e","619531dcf66c91622fa1b861","6195a863dc4c0699dabe5243","843","","d","true","[[289,599],[504,519],[599,310],[519,95],[310,0],[95,80],[0,289],[80,504]]","true","8","main_T2_Trial","d","img/Fire_Up_Target.gif","[""img/Fire_Down_Distractor.gif"",""img/Fire_Down_Distractor.gif"",""img/Fire_Down_Distractor.gif"",""img/Fire_Down_Distractor.gif"",""img/Fire_Down_Distractor.gif"",""img/Fire_Down_Distractor.gif"",""img/Fire_Down_Distractor.gif"",""img/Fire_Down_Distractor.gif"",""img/Fire_Down_Distractor.gif"",""img/Fire_Down_Distractor.gif"",""img/Fire_Down_Distractor.gif"",""img/Fire_Down_Distractor.gif""]","8","targetUp_distractorsDown"
"","","","","","html-keyboard-response","96","174171","0.0-14.0-0.0-0.41","6004c0c7e2b1453733edd35e","619531dcf66c91622fa1b861","6195a863dc4c0699dabe5243","null","","null","","","","","main_T1_ITI","","","","",""
"","","","","","visual-search-circle","97","175912","0.0-14.0-0.0-1.41","6004c0c7e2b1453733edd35e","619531dcf66c91622fa1b861","6195a863dc4c0699dabe5243","735","","d","true","[[476,57],[177,25],[1,268],[123,542],[422,574],[598,331]]","true","6","main_T2_Trial","d","img/Fire_Down_Target.gif","[""img/Fire_Up_Distractor.gif"",""img/Fire_Up_Distractor.gif"",""img/Fire_Up_Distractor.gif"",""img/Fire_Up_Distractor.gif"",""img/Fire_Up_Distractor.gif"",""img/Fire_Up_Distractor.gif"",""img/Fire_Up_Distractor.gif"",""img/Fire_Up_Distractor.gif"",""img/Fire_Up_Distractor.gif"",""img/Fire_Up_Distractor.gif"",""img/Fire_Up_Distractor.gif"",""img/Fire_Up_Distractor.gif""]","6","targetDown_distractorsUp"
"","","","","","html-keyboard-response","98","175912","0.0-14.0-0.0-0.42","6004c0c7e2b1453733edd35e","619531dcf66c91622fa1b861","6195a863dc4c0699dabe5243","null","","null","","","","","main_T1_ITI","","","","",""
"","","","","","visual-search-circle","99","177828","0.0-14.0-0.0-1.42","6004c0c7e2b1453733edd35e","619531dcf66c91622fa1b861","6195a863dc4c0699dabe5243","900","","s","true","[[227,8],[0,279],[187,578],[529,492],[554,141]]","false","5","main_T2_Trial","s","img/Fire_Down_Target.gif","[""img/Fire_Up_Distractor.gif"",""img/Fire_Up_Distractor.gif"",""img/Fire_Up_Distractor.gif"",""img/Fire_Up_Distractor.gif"",""img/Fire_Up_Distractor.gif"",""img/Fire_Up_Distractor.gif"",""img/Fire_Up_Distractor.gif"",""img/Fire_Up_Distractor.gif"",""img/Fire_Up_Distractor.gif"",""img/Fire_Up_Distractor.gif"",""img/Fire_Up_Distractor.gif"",""img/Fire_Up_Distractor.gif""]","5","targetDown_distractorsUp"
"","","","","","html-keyboard-response","100","177830","0.0-14.0-0.0-0.43","6004c0c7e2b1453733edd35e","619531dcf66c91622fa1b861","6195a863dc4c0699dabe5243","null","","null","","","","","main_T1_ITI","","","","",""
"","","","","","visual-search-circle","101","179544","0.0-14.0-0.0-1.43","6004c0c7e2b1453733edd35e","619531dcf66c91622fa1b861","6195a863dc4c0699dabe5243","708","","d","true","[[0,284],[100,524],[351,595],[563,444],[576,184],[381,11],[125,55]]","true","7","main_T2_Trial","d","img/Fire_Up_Target.gif","[""img/Fire_Down_Distractor.gif"",""img/Fire_Down_Distractor.gif"",""img/Fire_Down_Distractor.gif"",""img/Fire_Down_Distractor.gif"",""img/Fire_Down_Distractor.gif"",""img/Fire_Down_Distractor.gif"",""img/Fire_Down_Distractor.gif"",""img/Fire_Down_Distractor.gif"",""img/Fire_Down_Distractor.gif"",""img/Fire_Down_Distractor.gif"",""img/Fire_Down_Distractor.gif"",""img/Fire_Down_Distractor.gif""]","7","targetUp_distractorsDown"
"","","","","","html-keyboard-response","102","179544","0.0-14.0-0.0-0.44","6004c0c7e2b1453733edd35e","619531dcf66c91622fa1b861","6195a863dc4c0699dabe5243","null","","null","","","","","main_T1_ITI","","","","",""
"","","","","","visual-search-circle","103","181368","0.0-14.0-0.0-1.44","6004c0c7e2b1453733edd35e","619531dcf66c91622fa1b861","6195a863dc4c0699dabe5243","814","","s","false","[[597,336],[336,2],[2,263],[263,597]]","true","4","main_T2_Trial","d","img/Fire_Down_Target.gif","[""img/Fire_Up_Distractor.gif"",""img/Fire_Up_Distractor.gif"",""img/Fire_Up_Distractor.gif"",""img/Fire_Up_Distractor.gif"",""img/Fire_Up_Distractor.gif"",""img/Fire_Up_Distractor.gif"",""img/Fire_Up_Distractor.gif"",""img/Fire_Up_Distractor.gif"",""img/Fire_Up_Distractor.gif"",""img/Fire_Up_Distractor.gif"",""img/Fire_Up_Distractor.gif"",""img/Fire_Up_Distractor.gif""]","4","targetDown_distractorsUp"
"","","","","","html-keyboard-response","104","181368","0.0-14.0-0.0-0.45","6004c0c7e2b1453733edd35e","619531dcf66c91622fa1b861","6195a863dc4c0699dabe5243","null","","null","","","","","main_T1_ITI","","","","",""
"","","","","","visual-search-circle","105","183519","0.0-14.0-0.0-1.45","6004c0c7e2b1453733edd35e","619531dcf66c91622fa1b861","6195a863dc4c0699dabe5243","1137","","d","true","[[315,0],[48,136],[32,436],[284,599],[551,463],[567,163]]","true","6","main_T2_Trial","d","img/Fire_Down_Target.gif","[""img/Fire_Up_Distractor.gif"",""img/Fire_Up_Distractor.gif"",""img/Fire_Up_Distractor.gif"",""img/Fire_Up_Distractor.gif"",""img/Fire_Up_Distractor.gif"",""img/Fire_Up_Distractor.gif"",""img/Fire_Up_Distractor.gif"",""img/Fire_Up_Distractor.gif"",""img/Fire_Up_Distractor.gif"",""img/Fire_Up_Distractor.gif"",""img/Fire_Up_Distractor.gif"",""img/Fire_Up_Distractor.gif""]","6","targetDown_distractorsUp"
"","","","","","html-keyboard-response","106","183520","0.0-14.0-0.0-0.46","6004c0c7e2b1453733edd35e","619531dcf66c91622fa1b861","6195a863dc4c0699dabe5243","null","","null","","","","","main_T1_ITI","","","","",""
"","","","","","visual-search-circle","107","185443","0.0-14.0-0.0-1.46","6004c0c7e2b1453733edd35e","619531dcf66c91622fa1b861","6195a863dc4c0699dabe5243","908","","s","true","[[63,484],[402,581],[599,289],[382,11],[51,132]]","false","5","main_T2_Trial","s","img/Fire_Down_Target.gif","[""img/Fire_Up_Distractor.gif"",""img/Fire_Up_Distractor.gif"",""img/Fire_Up_Distractor.gif"",""img/Fire_Up_Distractor.gif"",""img/Fire_Up_Distractor.gif"",""img/Fire_Up_Distractor.gif"",""img/Fire_Up_Distractor.gif"",""img/Fire_Up_Distractor.gif"",""img/Fire_Up_Distractor.gif"",""img/Fire_Up_Distractor.gif"",""img/Fire_Up_Distractor.gif"",""img/Fire_Up_Distractor.gif""]","5","targetDown_distractorsUp"
"","","","","","html-keyboard-response","108","185443","0.0-14.0-0.0-0.47","6004c0c7e2b1453733edd35e","619531dcf66c91622fa1b861","6195a863dc4c0699dabe5243","null","","null","","","","","main_T1_ITI","","","","",""
"","","","","","visual-search-circle","109","187393","0.0-14.0-0.0-1.47","6004c0c7e2b1453733edd35e","619531dcf66c91622fa1b861","6195a863dc4c0699dabe5243","936","","s","true","[[542,476],[542,123],[207,14],[0,299],[207,585]]","false","5","main_T2_Trial","s","img/Fire_Up_Target.gif","[""img/Fire_Down_Distractor.gif"",""img/Fire_Down_Distractor.gif"",""img/Fire_Down_Distractor.gif"",""img/Fire_Down_Distractor.gif"",""img/Fire_Down_Distractor.gif"",""img/Fire_Down_Distractor.gif"",""img/Fire_Down_Distractor.gif"",""img/Fire_Down_Distractor.gif"",""img/Fire_Down_Distractor.gif"",""img/Fire_Down_Distractor.gif"",""img/Fire_Down_Distractor.gif"",""img/Fire_Down_Distractor.gif""]","5","targetUp_distractorsDown"
"","","","","","html-keyboard-response","110","187393","0.0-14.0-0.0-0.48","6004c0c7e2b1453733edd35e","619531dcf66c91622fa1b861","6195a863dc4c0699dabe5243","null","","null","","","","","main_T1_ITI","","","","",""
"","","","","","visual-search-circle","111","189304","0.0-14.0-0.0-1.48","6004c0c7e2b1453733edd35e","619531dcf66c91622fa1b861","6195a863dc4c0699dabe5243","900","","s","true","[[0,294],[145,557],[445,562],[599,305],[454,42],[154,37]]","false","6","main_T2_Trial","s","img/Fire_Down_Target.gif","[""img/Fire_Up_Distractor.gif"",""img/Fire_Up_Distractor.gif"",""img/Fire_Up_Distractor.gif"",""img/Fire_Up_Distractor.gif"",""img/Fire_Up_Distractor.gif"",""img/Fire_Up_Distractor.gif"",""img/Fire_Up_Distractor.gif"",""img/Fire_Up_Distractor.gif"",""img/Fire_Up_Distractor.gif"",""img/Fire_Up_Distractor.gif"",""img/Fire_Up_Distractor.gif"",""img/Fire_Up_Distractor.gif""]","6","targetDown_distractorsUp"
"","","","","","html-keyboard-response","112","189305","0.0-14.0-0.0-0.49","6004c0c7e2b1453733edd35e","619531dcf66c91622fa1b861","6195a863dc4c0699dabe5243","null","","null","","","","","main_T1_ITI","","","","",""
"","","","","","visual-search-circle","113","191145","0.0-14.0-0.0-1.49","6004c0c7e2b1453733edd35e","619531dcf66c91622fa1b861","6195a863dc4c0699dabe5243","825","","s","true","[[11,382],[184,577],[444,562],[595,350],[523,100],[283,0],[55,126]]","false","7","main_T2_Trial","s","img/Fire_Up_Target.gif","[""img/Fire_Down_Distractor.gif"",""img/Fire_Down_Distractor.gif"",""img/Fire_Down_Distractor.gif"",""img/Fire_Down_Distractor.gif"",""img/Fire_Down_Distractor.gif"",""img/Fire_Down_Distractor.gif"",""img/Fire_Down_Distractor.gif"",""img/Fire_Down_Distractor.gif"",""img/Fire_Down_Distractor.gif"",""img/Fire_Down_Distractor.gif"",""img/Fire_Down_Distractor.gif"",""img/Fire_Down_Distractor.gif""]","7","targetUp_distractorsDown"
"","","","","","html-keyboard-response","114","191146","0.0-14.0-0.0-0.50","6004c0c7e2b1453733edd35e","619531dcf66c91622fa1b861","6195a863dc4c0699dabe5243","null","","null","","","","","main_T1_ITI","","","","",""
"","","","","","visual-search-circle","115","192807","0.0-14.0-0.0-1.50","6004c0c7e2b1453733edd35e","619531dcf66c91622fa1b861","6195a863dc4c0699dabe5243","653","","s","true","[[600,300],[450,40],[150,40],[0,299],[149,559],[450,559]]","false","6","main_T2_Trial","s","img/Fire_Down_Target.gif","[""img/Fire_Up_Distractor.gif"",""img/Fire_Up_Distractor.gif"",""img/Fire_Up_Distractor.gif"",""img/Fire_Up_Distractor.gif"",""img/Fire_Up_Distractor.gif"",""img/Fire_Up_Distractor.gif"",""img/Fire_Up_Distractor.gif"",""img/Fire_Up_Distractor.gif"",""img/Fire_Up_Distractor.gif"",""img/Fire_Up_Distractor.gif"",""img/Fire_Up_Distractor.gif"",""img/Fire_Up_Distractor.gif""]","6","targetDown_distractorsUp"
"","","","","","html-keyboard-response","116","192807","0.0-14.0-0.0-0.51","6004c0c7e2b1453733edd35e","619531dcf66c91622fa1b861","6195a863dc4c0699dabe5243","null","","null","","","","","main_T1_ITI","","","","",""
"","","","","","visual-search-circle","117","194578","0.0-14.0-0.0-1.51","6004c0c7e2b1453733edd35e","619531dcf66c91622fa1b861","6195a863dc4c0699dabe5243","768","","s","true","[[492,529],[598,326],[529,107],[326,1],[107,70],[1,273],[70,492],[273,598]]","false","8","main_T2_Trial","s","img/Fire_Up_Target.gif","[""img/Fire_Down_Distractor.gif"",""img/Fire_Down_Distractor.gif"",""img/Fire_Down_Distractor.gif"",""img/Fire_Down_Distractor.gif"",""img/Fire_Down_Distractor.gif"",""img/Fire_Down_Distractor.gif"",""img/Fire_Down_Distractor.gif"",""img/Fire_Down_Distractor.gif"",""img/Fire_Down_Distractor.gif"",""img/Fire_Down_Distractor.gif"",""img/Fire_Down_Distractor.gif"",""img/Fire_Down_Distractor.gif""]","8","targetUp_distractorsDown"
"","","","","","html-keyboard-response","118","194578","0.0-14.0-0.0-0.52","6004c0c7e2b1453733edd35e","619531dcf66c91622fa1b861","6195a863dc4c0699dabe5243","null","","null","","","","","main_T1_ITI","","","","",""
"","","","","","visual-search-circle","119","196248","0.0-14.0-0.0-1.52","6004c0c7e2b1453733edd35e","619531dcf66c91622fa1b861","6195a863dc4c0699dabe5243","663","","s","true","[[273,1],[7,232],[145,557],[496,526],[576,182]]","false","5","main_T2_Trial","s","img/Fire_Up_Target.gif","[""img/Fire_Down_Distractor.gif"",""img/Fire_Down_Distractor.gif"",""img/Fire_Down_Distractor.gif"",""img/Fire_Down_Distractor.gif"",""img/Fire_Down_Distractor.gif"",""img/Fire_Down_Distractor.gif"",""img/Fire_Down_Distractor.gif"",""img/Fire_Down_Distractor.gif"",""img/Fire_Down_Distractor.gif"",""img/Fire_Down_Distractor.gif"",""img/Fire_Down_Distractor.gif"",""img/Fire_Down_Distractor.gif""]","5","targetUp_distractorsDown"
"","","","","","html-keyboard-response","120","196249","0.0-14.0-0.0-0.53","6004c0c7e2b1453733edd35e","619531dcf66c91622fa1b861","6195a863dc4c0699dabe5243","null","","null","","","","","main_T1_ITI","","","","",""
"","","","","","visual-search-circle","121","198062","0.0-14.0-0.0-1.53","6004c0c7e2b1453733edd35e","619531dcf66c91622fa1b861","6195a863dc4c0699dabe5243","803","","s","true","[[588,382],[467,51],[115,63],[18,402],[310,599]]","false","5","main_T2_Trial","s","img/Fire_Up_Target.gif","[""img/Fire_Down_Distractor.gif"",""img/Fire_Down_Distractor.gif"",""img/Fire_Down_Distractor.gif"",""img/Fire_Down_Distractor.gif"",""img/Fire_Down_Distractor.gif"",""img/Fire_Down_Distractor.gif"",""img/Fire_Down_Distractor.gif"",""img/Fire_Down_Distractor.gif"",""img/Fire_Down_Distractor.gif"",""img/Fire_Down_Distractor.gif"",""img/Fire_Down_Distractor.gif"",""img/Fire_Down_Distractor.gif""]","5","targetUp_distractorsDown"
"","","","","","html-keyboard-response","122","198062","0.0-14.0-0.0-0.54","6004c0c7e2b1453733edd35e","619531dcf66c91622fa1b861","6195a863dc4c0699dabe5243","null","","null","","","","","main_T1_ITI","","","","",""
"","","","","","visual-search-circle","123","200225","0.0-14.0-0.0-1.54","6004c0c7e2b1453733edd35e","619531dcf66c91622fa1b861","6195a863dc4c0699dabe5243","1148","","d","true","[[6,237],[237,593],[593,362],[362,6]]","true","4","main_T2_Trial","d","img/Fire_Up_Target.gif","[""img/Fire_Down_Distractor.gif"",""img/Fire_Down_Distractor.gif"",""img/Fire_Down_Distractor.gif"",""img/Fire_Down_Distractor.gif"",""img/Fire_Down_Distractor.gif"",""img/Fire_Down_Distractor.gif"",""img/Fire_Down_Distractor.gif"",""img/Fire_Down_Distractor.gif"",""img/Fire_Down_Distractor.gif"",""img/Fire_Down_Distractor.gif"",""img/Fire_Down_Distractor.gif"",""img/Fire_Down_Distractor.gif""]","4","targetUp_distractorsDown"
"","","","","","html-keyboard-response","124","200225","0.0-14.0-0.0-0.55","6004c0c7e2b1453733edd35e","619531dcf66c91622fa1b861","6195a863dc4c0699dabe5243","null","","null","","","","","main_T1_ITI","","","","",""
"","","","","","visual-search-circle","125","201977","0.0-14.0-0.0-1.55","6004c0c7e2b1453733edd35e","619531dcf66c91622fa1b861","6195a863dc4c0699dabe5243","737","","d","true","[[522,500],[585,207],[362,6],[77,99],[14,392],[237,593]]","true","6","main_T2_Trial","d","img/Fire_Up_Target.gif","[""img/Fire_Down_Distractor.gif"",""img/Fire_Down_Distractor.gif"",""img/Fire_Down_Distractor.gif"",""img/Fire_Down_Distractor.gif"",""img/Fire_Down_Distractor.gif"",""img/Fire_Down_Distractor.gif"",""img/Fire_Down_Distractor.gif"",""img/Fire_Down_Distractor.gif"",""img/Fire_Down_Distractor.gif"",""img/Fire_Down_Distractor.gif"",""img/Fire_Down_Distractor.gif"",""img/Fire_Down_Distractor.gif""]","6","targetUp_distractorsDown"
"","","","","","html-keyboard-response","126","201977","0.0-14.0-0.0-0.56","6004c0c7e2b1453733edd35e","619531dcf66c91622fa1b861","6195a863dc4c0699dabe5243","null","","null","","","","","main_T1_ITI","","","","",""
"","","","","","visual-search-circle","127","203801","0.0-14.0-0.0-1.56","6004c0c7e2b1453733edd35e","619531dcf66c91622fa1b861","6195a863dc4c0699dabe5243","808","","s","true","[[263,597],[597,336],[336,2],[2,263]]","false","4","main_T2_Trial","s","img/Fire_Down_Target.gif","[""img/Fire_Up_Distractor.gif"",""img/Fire_Up_Distractor.gif"",""img/Fire_Up_Distractor.gif"",""img/Fire_Up_Distractor.gif"",""img/Fire_Up_Distractor.gif"",""img/Fire_Up_Distractor.gif"",""img/Fire_Up_Distractor.gif"",""img/Fire_Up_Distractor.gif"",""img/Fire_Up_Distractor.gif"",""img/Fire_Up_Distractor.gif"",""img/Fire_Up_Distractor.gif"",""img/Fire_Up_Distractor.gif""]","4","targetDown_distractorsUp"
"","","","","","html-keyboard-response","128","203801","0.0-14.0-0.0-0.57","6004c0c7e2b1453733edd35e","619531dcf66c91622fa1b861","6195a863dc4c0699dabe5243","null","","null","","","","","main_T1_ITI","","","","",""
"","","","","","visual-search-circle","129","205485","0.0-14.0-0.0-1.57","6004c0c7e2b1453733edd35e","619531dcf66c91622fa1b861","6195a863dc4c0699dabe5243","671","","s","true","[[315,599],[599,284],[284,0],[0,315]]","false","4","main_T2_Trial","s","img/Fire_Down_Target.gif","[""img/Fire_Up_Distractor.gif"",""img/Fire_Up_Distractor.gif"",""img/Fire_Up_Distractor.gif"",""img/Fire_Up_Distractor.gif"",""img/Fire_Up_Distractor.gif"",""img/Fire_Up_Distractor.gif"",""img/Fire_Up_Distractor.gif"",""img/Fire_Up_Distractor.gif"",""img/Fire_Up_Distractor.gif"",""img/Fire_Up_Distractor.gif"",""img/Fire_Up_Distractor.gif"",""img/Fire_Up_Distractor.gif""]","4","targetDown_distractorsUp"
"","","","","","html-keyboard-response","130","205486","0.0-14.0-0.0-0.58","6004c0c7e2b1453733edd35e","619531dcf66c91622fa1b861","6195a863dc4c0699dabe5243","null","","null","","","","","main_T1_ITI","","","","",""
"","","","","","visual-search-circle","131","207290","0.0-14.0-0.0-1.58","6004c0c7e2b1453733edd35e","619531dcf66c91622fa1b861","6195a863dc4c0699dabe5243","801","","s","true","[[258,2],[21,187],[63,484],[341,597],[578,412],[536,115]]","false","6","main_T2_Trial","s","img/Fire_Up_Target.gif","[""img/Fire_Down_Distractor.gif"",""img/Fire_Down_Distractor.gif"",""img/Fire_Down_Distractor.gif"",""img/Fire_Down_Distractor.gif"",""img/Fire_Down_Distractor.gif"",""img/Fire_Down_Distractor.gif"",""img/Fire_Down_Distractor.gif"",""img/Fire_Down_Distractor.gif"",""img/Fire_Down_Distractor.gif"",""img/Fire_Down_Distractor.gif"",""img/Fire_Down_Distractor.gif"",""img/Fire_Down_Distractor.gif""]","6","targetUp_distractorsDown"
"","","","","","html-keyboard-response","132","212019","0.0-14.0-0.0-0.59","6004c0c7e2b1453733edd35e","619531dcf66c91622fa1b861","6195a863dc4c0699dabe5243","4728","Wow! You've completed 60 out of 160 trials! </p> <p>  </p><p> Take a quick break, then press any key when you're ready to continue."," ","","","","","main_T1_ITI","","","","",""
"","","","","","visual-search-circle","133","214032","0.0-14.0-0.0-1.59","6004c0c7e2b1453733edd35e","619531dcf66c91622fa1b861","6195a863dc4c0699dabe5243","1009","","s","true","[[320,0],[21,187],[107,529],[458,554],[591,227]]","false","5","main_T2_Trial","s","img/Fire_Down_Target.gif","[""img/Fire_Up_Distractor.gif"",""img/Fire_Up_Distractor.gif"",""img/Fire_Up_Distractor.gif"",""img/Fire_Up_Distractor.gif"",""img/Fire_Up_Distractor.gif"",""img/Fire_Up_Distractor.gif"",""img/Fire_Up_Distractor.gif"",""img/Fire_Up_Distractor.gif"",""img/Fire_Up_Distractor.gif"",""img/Fire_Up_Distractor.gif"",""img/Fire_Up_Distractor.gif"",""img/Fire_Up_Distractor.gif""]","5","targetDown_distractorsUp"
"","","","","","html-keyboard-response","134","214032","0.0-14.0-0.0-0.60","6004c0c7e2b1453733edd35e","619531dcf66c91622fa1b861","6195a863dc4c0699dabe5243","null","","null","","","","","main_T1_ITI","","","","",""
"","","","","","visual-search-circle","135","215974","0.0-14.0-0.0-1.60","6004c0c7e2b1453733edd35e","619531dcf66c91622fa1b861","6195a863dc4c0699dabe5243","928","","s","true","[[60,480],[397,583],[599,294],[387,13],[54,127]]","false","5","main_T2_Trial","s","img/Fire_Up_Target.gif","[""img/Fire_Down_Distractor.gif"",""img/Fire_Down_Distractor.gif"",""img/Fire_Down_Distractor.gif"",""img/Fire_Down_Distractor.gif"",""img/Fire_Down_Distractor.gif"",""img/Fire_Down_Distractor.gif"",""img/Fire_Down_Distractor.gif"",""img/Fire_Down_Distractor.gif"",""img/Fire_Down_Distractor.gif"",""img/Fire_Down_Distractor.gif"",""img/Fire_Down_Distractor.gif"",""img/Fire_Down_Distractor.gif""]","5","targetUp_distractorsDown"
"","","","","","html-keyboard-response","136","215975","0.0-14.0-0.0-0.61","6004c0c7e2b1453733edd35e","619531dcf66c91622fa1b861","6195a863dc4c0699dabe5243","null","","null","","","","","main_T1_ITI","","","","",""
"","","","","","visual-search-circle","137","217832","0.0-14.0-0.0-1.61","6004c0c7e2b1453733edd35e","619531dcf66c91622fa1b861","6195a863dc4c0699dabe5243","855","","s","false","[[8,372],[175,572],[435,567],[593,360],[530,108],[294,0],[61,117]]","true","7","main_T2_Trial","d","img/Fire_Down_Target.gif","[""img/Fire_Up_Distractor.gif"",""img/Fire_Up_Distractor.gif"",""img/Fire_Up_Distractor.gif"",""img/Fire_Up_Distractor.gif"",""img/Fire_Up_Distractor.gif"",""img/Fire_Up_Distractor.gif"",""img/Fire_Up_Distractor.gif"",""img/Fire_Up_Distractor.gif"",""img/Fire_Up_Distractor.gif"",""img/Fire_Up_Distractor.gif"",""img/Fire_Up_Distractor.gif"",""img/Fire_Up_Distractor.gif""]","7","targetDown_distractorsUp"
"","","","","","html-keyboard-response","138","217833","0.0-14.0-0.0-0.62","6004c0c7e2b1453733edd35e","619531dcf66c91622fa1b861","6195a863dc4c0699dabe5243","null","","null","","","","","main_T1_ITI","","","","",""
"","","","","","visual-search-circle","139","219524","0.0-14.0-0.0-1.62","6004c0c7e2b1453733edd35e","619531dcf66c91622fa1b861","6195a863dc4c0699dabe5243","675","","d","true","[[51,467],[276,599],[518,505],[596,256],[451,40],[191,20],[13,210]]","true","7","main_T2_Trial","d","img/Fire_Down_Target.gif","[""img/Fire_Up_Distractor.gif"",""img/Fire_Up_Distractor.gif"",""img/Fire_Up_Distractor.gif"",""img/Fire_Up_Distractor.gif"",""img/Fire_Up_Distractor.gif"",""img/Fire_Up_Distractor.gif"",""img/Fire_Up_Distractor.gif"",""img/Fire_Up_Distractor.gif"",""img/Fire_Up_Distractor.gif"",""img/Fire_Up_Distractor.gif"",""img/Fire_Up_Distractor.gif"",""img/Fire_Up_Distractor.gif""]","7","targetDown_distractorsUp"
"","","","","","html-keyboard-response","140","219524","0.0-14.0-0.0-0.63","6004c0c7e2b1453733edd35e","619531dcf66c91622fa1b861","6195a863dc4c0699dabe5243","null","","null","","","","","main_T1_ITI","","","","",""
"","","","","","visual-search-circle","141","221233","0.0-14.0-0.0-1.63","6004c0c7e2b1453733edd35e","619531dcf66c91622fa1b861","6195a863dc4c0699dabe5243","705","","d","true","[[247,595],[472,545],[595,352],[545,127],[352,4],[127,54],[4,247],[54,472]]","true","8","main_T2_Trial","d","img/Fire_Down_Target.gif","[""img/Fire_Up_Distractor.gif"",""img/Fire_Up_Distractor.gif"",""img/Fire_Up_Distractor.gif"",""img/Fire_Up_Distractor.gif"",""img/Fire_Up_Distractor.gif"",""img/Fire_Up_Distractor.gif"",""img/Fire_Up_Distractor.gif"",""img/Fire_Up_Distractor.gif"",""img/Fire_Up_Distractor.gif"",""img/Fire_Up_Distractor.gif"",""img/Fire_Up_Distractor.gif"",""img/Fire_Up_Distractor.gif""]","8","targetDown_distractorsUp"
"","","","","","html-keyboard-response","142","221234","0.0-14.0-0.0-0.64","6004c0c7e2b1453733edd35e","619531dcf66c91622fa1b861","6195a863dc4c0699dabe5243","null","","null","","","","","main_T1_ITI","","","","",""
"","","","","","visual-search-circle","143","223019","0.0-14.0-0.0-1.64","6004c0c7e2b1453733edd35e","619531dcf66c91622fa1b861","6195a863dc4c0699dabe5243","775","","s","true","[[564,159],[387,13],[159,35],[13,212],[35,440],[212,586],[440,564],[586,387]]","false","8","main_T2_Trial","s","img/Fire_Up_Target.gif","[""img/Fire_Down_Distractor.gif"",""img/Fire_Down_Distractor.gif"",""img/Fire_Down_Distractor.gif"",""img/Fire_Down_Distractor.gif"",""img/Fire_Down_Distractor.gif"",""img/Fire_Down_Distractor.gif"",""img/Fire_Down_Distractor.gif"",""img/Fire_Down_Distractor.gif"",""img/Fire_Down_Distractor.gif"",""img/Fire_Down_Distractor.gif"",""img/Fire_Down_Distractor.gif"",""img/Fire_Down_Distractor.gif""]","8","targetUp_distractorsDown"
"","","","","","html-keyboard-response","144","223020","0.0-14.0-0.0-0.65","6004c0c7e2b1453733edd35e","619531dcf66c91622fa1b861","6195a863dc4c0699dabe5243","null","","null","","","","","main_T1_ITI","","","","",""
"","","","","","visual-search-circle","145","224797","0.0-14.0-0.0-1.65","6004c0c7e2b1453733edd35e","619531dcf66c91622fa1b861","6195a863dc4c0699dabe5243","764","","s","true","[[18,402],[402,581],[581,197],[197,18]]","false","4","main_T2_Trial","s","img/Fire_Down_Target.gif","[""img/Fire_Up_Distractor.gif"",""img/Fire_Up_Distractor.gif"",""img/Fire_Up_Distractor.gif"",""img/Fire_Up_Distractor.gif"",""img/Fire_Up_Distractor.gif"",""img/Fire_Up_Distractor.gif"",""img/Fire_Up_Distractor.gif"",""img/Fire_Up_Distractor.gif"",""img/Fire_Up_Distractor.gif"",""img/Fire_Up_Distractor.gif"",""img/Fire_Up_Distractor.gif"",""img/Fire_Up_Distractor.gif""]","4","targetDown_distractorsUp"
"","","","","","html-keyboard-response","146","224797","0.0-14.0-0.0-0.66","6004c0c7e2b1453733edd35e","619531dcf66c91622fa1b861","6195a863dc4c0699dabe5243","null","","null","","","","","main_T1_ITI","","","","",""
"","","","","","visual-search-circle","147","226510","0.0-14.0-0.0-1.66","6004c0c7e2b1453733edd35e","619531dcf66c91622fa1b861","6195a863dc4c0699dabe5243","694","","s","true","[[594,357],[528,105],[290,0],[59,120],[9,376],[178,574],[438,565]]","false","7","main_T2_Trial","s","img/Fire_Down_Target.gif","[""img/Fire_Up_Distractor.gif"",""img/Fire_Up_Distractor.gif"",""img/Fire_Up_Distractor.gif"",""img/Fire_Up_Distractor.gif"",""img/Fire_Up_Distractor.gif"",""img/Fire_Up_Distractor.gif"",""img/Fire_Up_Distractor.gif"",""img/Fire_Up_Distractor.gif"",""img/Fire_Up_Distractor.gif"",""img/Fire_Up_Distractor.gif"",""img/Fire_Up_Distractor.gif"",""img/Fire_Up_Distractor.gif""]","7","targetDown_distractorsUp"
"","","","","","html-keyboard-response","148","226510","0.0-14.0-0.0-0.67","6004c0c7e2b1453733edd35e","619531dcf66c91622fa1b861","6195a863dc4c0699dabe5243","null","","null","","","","","main_T1_ITI","","","","",""
"","","","","","visual-search-circle","149","228225","0.0-14.0-0.0-1.67","6004c0c7e2b1453733edd35e","619531dcf66c91622fa1b861","6195a863dc4c0699dabe5243","709","","d","true","[[95,519],[310,599],[519,504],[599,289],[504,80],[289,0],[80,95],[0,310]]","true","8","main_T2_Trial","d","img/Fire_Up_Target.gif","[""img/Fire_Down_Distractor.gif"",""img/Fire_Down_Distractor.gif"",""img/Fire_Down_Distractor.gif"",""img/Fire_Down_Distractor.gif"",""img/Fire_Down_Distractor.gif"",""img/Fire_Down_Distractor.gif"",""img/Fire_Down_Distractor.gif"",""img/Fire_Down_Distractor.gif"",""img/Fire_Down_Distractor.gif"",""img/Fire_Down_Distractor.gif"",""img/Fire_Down_Distractor.gif"",""img/Fire_Down_Distractor.gif""]","8","targetUp_distractorsDown"
"","","","","","html-keyboard-response","150","228225","0.0-14.0-0.0-0.68","6004c0c7e2b1453733edd35e","619531dcf66c91622fa1b861","6195a863dc4c0699dabe5243","null","","null","","","","","main_T1_ITI","","","","",""
"","","","","","visual-search-circle","151","230012","0.0-14.0-0.0-1.68","6004c0c7e2b1453733edd35e","619531dcf66c91622fa1b861","6195a863dc4c0699dabe5243","770","","s","true","[[594,357],[548,132],[357,5],[132,51],[5,242],[51,467],[242,594],[467,548]]","false","8","main_T2_Trial","s","img/Fire_Down_Target.gif","[""img/Fire_Up_Distractor.gif"",""img/Fire_Up_Distractor.gif"",""img/Fire_Up_Distractor.gif"",""img/Fire_Up_Distractor.gif"",""img/Fire_Up_Distractor.gif"",""img/Fire_Up_Distractor.gif"",""img/Fire_Up_Distractor.gif"",""img/Fire_Up_Distractor.gif"",""img/Fire_Up_Distractor.gif"",""img/Fire_Up_Distractor.gif"",""img/Fire_Up_Distractor.gif"",""img/Fire_Up_Distractor.gif""]","8","targetDown_distractorsUp"
"","","","","","html-keyboard-response","152","230012","0.0-14.0-0.0-0.69","6004c0c7e2b1453733edd35e","619531dcf66c91622fa1b861","6195a863dc4c0699dabe5243","null","","null","","","","","main_T1_ITI","","","","",""
"","","","","","visual-search-circle","153","232216","0.0-14.0-0.0-1.69","6004c0c7e2b1453733edd35e","619531dcf66c91622fa1b861","6195a863dc4c0699dabe5243","1192","","s","false","[[227,8],[0,279],[187,578],[529,492],[554,141]]","true","5","main_T2_Trial","d","img/Fire_Down_Target.gif","[""img/Fire_Up_Distractor.gif"",""img/Fire_Up_Distractor.gif"",""img/Fire_Up_Distractor.gif"",""img/Fire_Up_Distractor.gif"",""img/Fire_Up_Distractor.gif"",""img/Fire_Up_Distractor.gif"",""img/Fire_Up_Distractor.gif"",""img/Fire_Up_Distractor.gif"",""img/Fire_Up_Distractor.gif"",""img/Fire_Up_Distractor.gif"",""img/Fire_Up_Distractor.gif"",""img/Fire_Up_Distractor.gif""]","5","targetDown_distractorsUp"
"","","","","","html-keyboard-response","154","232216","0.0-14.0-0.0-0.70","6004c0c7e2b1453733edd35e","619531dcf66c91622fa1b861","6195a863dc4c0699dabe5243","null","","null","","","","","main_T1_ITI","","","","",""
"","","","","","visual-search-circle","155","234019","0.0-14.0-0.0-1.70","6004c0c7e2b1453733edd35e","619531dcf66c91622fa1b861","6195a863dc4c0699dabe5243","796","","s","true","[[346,596],[580,407],[533,111],[253,3],[19,192],[66,488]]","false","6","main_T2_Trial","s","img/Fire_Down_Target.gif","[""img/Fire_Up_Distractor.gif"",""img/Fire_Up_Distractor.gif"",""img/Fire_Up_Distractor.gif"",""img/Fire_Up_Distractor.gif"",""img/Fire_Up_Distractor.gif"",""img/Fire_Up_Distractor.gif"",""img/Fire_Up_Distractor.gif"",""img/Fire_Up_Distractor.gif"",""img/Fire_Up_Distractor.gif"",""img/Fire_Up_Distractor.gif"",""img/Fire_Up_Distractor.gif"",""img/Fire_Up_Distractor.gif""]","6","targetDown_distractorsUp"
"","","","","","html-keyboard-response","156","234020","0.0-14.0-0.0-0.71","6004c0c7e2b1453733edd35e","619531dcf66c91622fa1b861","6195a863dc4c0699dabe5243","null","","null","","","","","main_T1_ITI","","","","",""
"","","","","","visual-search-circle","157","235790","0.0-14.0-0.0-1.71","6004c0c7e2b1453733edd35e","619531dcf66c91622fa1b861","6195a863dc4c0699dabe5243","767","","s","true","[[159,564],[458,554],[599,289],[440,35],[141,45],[0,310]]","false","6","main_T2_Trial","s","img/Fire_Up_Target.gif","[""img/Fire_Down_Distractor.gif"",""img/Fire_Down_Distractor.gif"",""img/Fire_Down_Distractor.gif"",""img/Fire_Down_Distractor.gif"",""img/Fire_Down_Distractor.gif"",""img/Fire_Down_Distractor.gif"",""img/Fire_Down_Distractor.gif"",""img/Fire_Down_Distractor.gif"",""img/Fire_Down_Distractor.gif"",""img/Fire_Down_Distractor.gif"",""img/Fire_Down_Distractor.gif"",""img/Fire_Down_Distractor.gif""]","6","targetUp_distractorsDown"
"","","","","","html-keyboard-response","158","235790","0.0-14.0-0.0-0.72","6004c0c7e2b1453733edd35e","619531dcf66c91622fa1b861","6195a863dc4c0699dabe5243","null","","null","","","","","main_T1_ITI","","","","",""
"","","","","","visual-search-circle","159","237503","0.0-14.0-0.0-1.72","6004c0c7e2b1453733edd35e","619531dcf66c91622fa1b861","6195a863dc4c0699dabe5243","708","","d","true","[[30,168],[29,428],[231,592],[485,535],[599,301],[488,66],[234,7]]","true","7","main_T2_Trial","d","img/Fire_Down_Target.gif","[""img/Fire_Up_Distractor.gif"",""img/Fire_Up_Distractor.gif"",""img/Fire_Up_Distractor.gif"",""img/Fire_Up_Distractor.gif"",""img/Fire_Up_Distractor.gif"",""img/Fire_Up_Distractor.gif"",""img/Fire_Up_Distractor.gif"",""img/Fire_Up_Distractor.gif"",""img/Fire_Up_Distractor.gif"",""img/Fire_Up_Distractor.gif"",""img/Fire_Up_Distractor.gif"",""img/Fire_Up_Distractor.gif""]","7","targetDown_distractorsUp"
"","","","","","html-keyboard-response","160","237504","0.0-14.0-0.0-0.73","6004c0c7e2b1453733edd35e","619531dcf66c91622fa1b861","6195a863dc4c0699dabe5243","null","","null","","","","","main_T1_ITI","","","","",""
"","","","","","visual-search-circle","161","239680","0.0-14.0-0.0-1.73","6004c0c7e2b1453733edd35e","619531dcf66c91622fa1b861","6195a863dc4c0699dabe5243","1172","","d","true","[[539,119],[202,16],[0,305],[212,586],[545,472]]","true","5","main_T2_Trial","d","img/Fire_Down_Target.gif","[""img/Fire_Up_Distractor.gif"",""img/Fire_Up_Distractor.gif"",""img/Fire_Up_Distractor.gif"",""img/Fire_Up_Distractor.gif"",""img/Fire_Up_Distractor.gif"",""img/Fire_Up_Distractor.gif"",""img/Fire_Up_Distractor.gif"",""img/Fire_Up_Distractor.gif"",""img/Fire_Up_Distractor.gif"",""img/Fire_Up_Distractor.gif"",""img/Fire_Up_Distractor.gif"",""img/Fire_Up_Distractor.gif""]","5","targetDown_distractorsUp"
"","","","","","html-keyboard-response","162","239681","0.0-14.0-0.0-0.74","6004c0c7e2b1453733edd35e","619531dcf66c91622fa1b861","6195a863dc4c0699dabe5243","null","","null","","","","","main_T1_ITI","","","","",""
"","","","","","visual-search-circle","163","241415","0.0-14.0-0.0-1.74","6004c0c7e2b1453733edd35e","619531dcf66c91622fa1b861","6195a863dc4c0699dabe5243","720","","s","true","[[25,177],[99,522],[450,559],[593,237],[331,1]]","false","5","main_T2_Trial","s","img/Fire_Down_Target.gif","[""img/Fire_Up_Distractor.gif"",""img/Fire_Up_Distractor.gif"",""img/Fire_Up_Distractor.gif"",""img/Fire_Up_Distractor.gif"",""img/Fire_Up_Distractor.gif"",""img/Fire_Up_Distractor.gif"",""img/Fire_Up_Distractor.gif"",""img/Fire_Up_Distractor.gif"",""img/Fire_Up_Distractor.gif"",""img/Fire_Up_Distractor.gif"",""img/Fire_Up_Distractor.gif"",""img/Fire_Up_Distractor.gif""]","5","targetDown_distractorsUp"
"","","","","","html-keyboard-response","164","241415","0.0-14.0-0.0-0.75","6004c0c7e2b1453733edd35e","619531dcf66c91622fa1b861","6195a863dc4c0699dabe5243","null","","null","","","","","main_T1_ITI","","","","",""
"","","","","","visual-search-circle","165","243317","0.0-14.0-0.0-1.75","6004c0c7e2b1453733edd35e","619531dcf66c91622fa1b861","6195a863dc4c0699dabe5243","897","","s","true","[[37,154],[154,562],[562,445],[445,37]]","false","4","main_T2_Trial","s","img/Fire_Up_Target.gif","[""img/Fire_Down_Distractor.gif"",""img/Fire_Down_Distractor.gif"",""img/Fire_Down_Distractor.gif"",""img/Fire_Down_Distractor.gif"",""img/Fire_Down_Distractor.gif"",""img/Fire_Down_Distractor.gif"",""img/Fire_Down_Distractor.gif"",""img/Fire_Down_Distractor.gif"",""img/Fire_Down_Distractor.gif"",""img/Fire_Down_Distractor.gif"",""img/Fire_Down_Distractor.gif"",""img/Fire_Down_Distractor.gif""]","4","targetUp_distractorsDown"
"","","","","","html-keyboard-response","166","243317","0.0-14.0-0.0-0.76","6004c0c7e2b1453733edd35e","619531dcf66c91622fa1b861","6195a863dc4c0699dabe5243","null","","null","","","","","main_T1_ITI","","","","",""
"","","","","","visual-search-circle","167","245170","0.0-14.0-0.0-1.76","6004c0c7e2b1453733edd35e","619531dcf66c91622fa1b861","6195a863dc4c0699dabe5243","837","","s","true","[[508,84],[261,2],[43,144],[18,404],[205,584],[464,551],[598,328]]","false","7","main_T2_Trial","s","img/Fire_Up_Target.gif","[""img/Fire_Down_Distractor.gif"",""img/Fire_Down_Distractor.gif"",""img/Fire_Down_Distractor.gif"",""img/Fire_Down_Distractor.gif"",""img/Fire_Down_Distractor.gif"",""img/Fire_Down_Distractor.gif"",""img/Fire_Down_Distractor.gif"",""img/Fire_Down_Distractor.gif"",""img/Fire_Down_Distractor.gif"",""img/Fire_Down_Distractor.gif"",""img/Fire_Down_Distractor.gif"",""img/Fire_Down_Distractor.gif""]","7","targetUp_distractorsDown"
"","","","","","html-keyboard-response","168","245171","0.0-14.0-0.0-0.77","6004c0c7e2b1453733edd35e","619531dcf66c91622fa1b861","6195a863dc4c0699dabe5243","null","","null","","","","","main_T1_ITI","","","","",""
"","","","","","visual-search-circle","169","246949","0.0-14.0-0.0-1.77","6004c0c7e2b1453733edd35e","619531dcf66c91622fa1b861","6195a863dc4c0699dabe5243","776","","d","true","[[0,284],[77,500],[284,599],[500,522],[599,315],[522,99],[315,0],[99,77]]","true","8","main_T2_Trial","d","img/Fire_Up_Target.gif","[""img/Fire_Down_Distractor.gif"",""img/Fire_Down_Distractor.gif"",""img/Fire_Down_Distractor.gif"",""img/Fire_Down_Distractor.gif"",""img/Fire_Down_Distractor.gif"",""img/Fire_Down_Distractor.gif"",""img/Fire_Down_Distractor.gif"",""img/Fire_Down_Distractor.gif"",""img/Fire_Down_Distractor.gif"",""img/Fire_Down_Distractor.gif"",""img/Fire_Down_Distractor.gif"",""img/Fire_Down_Distractor.gif""]","8","targetUp_distractorsDown"
"","","","","","html-keyboard-response","170","246950","0.0-14.0-0.0-0.78","6004c0c7e2b1453733edd35e","619531dcf66c91622fa1b861","6195a863dc4c0699dabe5243","null","","null","","","","","main_T1_ITI","","","","",""
"","","","","","visual-search-circle","171","248816","0.0-14.0-0.0-1.78","6004c0c7e2b1453733edd35e","619531dcf66c91622fa1b861","6195a863dc4c0699dabe5243","858","","d","true","[[569,431],[583,202],[431,30],[202,16],[30,168],[16,397],[168,569],[397,583]]","true","8","main_T2_Trial","d","img/Fire_Down_Target.gif","[""img/Fire_Up_Distractor.gif"",""img/Fire_Up_Distractor.gif"",""img/Fire_Up_Distractor.gif"",""img/Fire_Up_Distractor.gif"",""img/Fire_Up_Distractor.gif"",""img/Fire_Up_Distractor.gif"",""img/Fire_Up_Distractor.gif"",""img/Fire_Up_Distractor.gif"",""img/Fire_Up_Distractor.gif"",""img/Fire_Up_Distractor.gif"",""img/Fire_Up_Distractor.gif"",""img/Fire_Up_Distractor.gif""]","8","targetDown_distractorsUp"
"","","","","","html-keyboard-response","172","253994","0.0-14.0-0.0-0.79","6004c0c7e2b1453733edd35e","619531dcf66c91622fa1b861","6195a863dc4c0699dabe5243","5177","Wow! You've completed 80 out of 160 trials! </p> <p>  </p><p> Take a quick break, then press any key when you're ready to continue."," ","","","","","main_T1_ITI","","","","",""
"","","","","","visual-search-circle","173","256017","0.0-14.0-0.0-1.79","6004c0c7e2b1453733edd35e","619531dcf66c91622fa1b861","6195a863dc4c0699dabe5243","1013","","s","true","[[545,472],[587,215],[413,22],[153,38],[3,251],[77,501],[318,599]]","false","7","main_T2_Trial","s","img/Fire_Up_Target.gif","[""img/Fire_Down_Distractor.gif"",""img/Fire_Down_Distractor.gif"",""img/Fire_Down_Distractor.gif"",""img/Fire_Down_Distractor.gif"",""img/Fire_Down_Distractor.gif"",""img/Fire_Down_Distractor.gif"",""img/Fire_Down_Distractor.gif"",""img/Fire_Down_Distractor.gif"",""img/Fire_Down_Distractor.gif"",""img/Fire_Down_Distractor.gif"",""img/Fire_Down_Distractor.gif"",""img/Fire_Down_Distractor.gif""]","7","targetUp_distractorsDown"
"","","","","","html-keyboard-response","174","256017","0.0-14.0-0.0-0.80","6004c0c7e2b1453733edd35e","619531dcf66c91622fa1b861","6195a863dc4c0699dabe5243","null","","null","","","","","main_T1_ITI","","","","",""
"","","","","","visual-search-circle","175","257724","0.0-14.0-0.0-1.80","6004c0c7e2b1453733edd35e","619531dcf66c91622fa1b861","6195a863dc4c0699dabe5243","700","","d","true","[[533,111],[297,0],[64,114],[8,368],[171,571],[432,569],[592,364]]","true","7","main_T2_Trial","d","img/Fire_Up_Target.gif","[""img/Fire_Down_Distractor.gif"",""img/Fire_Down_Distractor.gif"",""img/Fire_Down_Distractor.gif"",""img/Fire_Down_Distractor.gif"",""img/Fire_Down_Distractor.gif"",""img/Fire_Down_Distractor.gif"",""img/Fire_Down_Distractor.gif"",""img/Fire_Down_Distractor.gif"",""img/Fire_Down_Distractor.gif"",""img/Fire_Down_Distractor.gif"",""img/Fire_Down_Distractor.gif"",""img/Fire_Down_Distractor.gif""]","7","targetUp_distractorsDown"
"","","","","","html-keyboard-response","176","257725","0.0-14.0-0.0-0.81","6004c0c7e2b1453733edd35e","619531dcf66c91622fa1b861","6195a863dc4c0699dabe5243","null","","null","","","","","main_T1_ITI","","","","",""
"","","","","","visual-search-circle","177","259427","0.0-14.0-0.0-1.81","6004c0c7e2b1453733edd35e","619531dcf66c91622fa1b861","6195a863dc4c0699dabe5243","689","","d","true","[[569,431],[548,132],[279,0],[30,168],[51,467],[320,599]]","true","6","main_T2_Trial","d","img/Fire_Down_Target.gif","[""img/Fire_Up_Distractor.gif"",""img/Fire_Up_Distractor.gif"",""img/Fire_Up_Distractor.gif"",""img/Fire_Up_Distractor.gif"",""img/Fire_Up_Distractor.gif"",""img/Fire_Up_Distractor.gif"",""img/Fire_Up_Distractor.gif"",""img/Fire_Up_Distractor.gif"",""img/Fire_Up_Distractor.gif"",""img/Fire_Up_Distractor.gif"",""img/Fire_Up_Distractor.gif"",""img/Fire_Up_Distractor.gif""]","6","targetDown_distractorsUp"
"","","","","","html-keyboard-response","178","259427","0.0-14.0-0.0-0.82","6004c0c7e2b1453733edd35e","619531dcf66c91622fa1b861","6195a863dc4c0699dabe5243","null","","null","","","","","main_T1_ITI","","","","",""
"","","","","","visual-search-circle","179","261218","0.0-14.0-0.0-1.82","6004c0c7e2b1453733edd35e","619531dcf66c91622fa1b861","6195a863dc4c0699dabe5243","779","","s","true","[[57,476],[286,599],[525,497],[595,246],[442,35],[182,24],[10,220]]","false","7","main_T2_Trial","s","img/Fire_Down_Target.gif","[""img/Fire_Up_Distractor.gif"",""img/Fire_Up_Distractor.gif"",""img/Fire_Up_Distractor.gif"",""img/Fire_Up_Distractor.gif"",""img/Fire_Up_Distractor.gif"",""img/Fire_Up_Distractor.gif"",""img/Fire_Up_Distractor.gif"",""img/Fire_Up_Distractor.gif"",""img/Fire_Up_Distractor.gif"",""img/Fire_Up_Distractor.gif"",""img/Fire_Up_Distractor.gif"",""img/Fire_Up_Distractor.gif""]","7","targetDown_distractorsUp"
"","","","","","html-keyboard-response","180","261219","0.0-14.0-0.0-0.83","6004c0c7e2b1453733edd35e","619531dcf66c91622fa1b861","6195a863dc4c0699dabe5243","null","","null","","","","","main_T1_ITI","","","","",""
"","","","","","visual-search-circle","181","263298","0.0-14.0-0.0-1.83","6004c0c7e2b1453733edd35e","619531dcf66c91622fa1b861","6195a863dc4c0699dabe5243","1071","","d","true","[[99,522],[450,559],[593,237],[331,1],[25,177]]","true","5","main_T2_Trial","d","img/Fire_Up_Target.gif","[""img/Fire_Down_Distractor.gif"",""img/Fire_Down_Distractor.gif"",""img/Fire_Down_Distractor.gif"",""img/Fire_Down_Distractor.gif"",""img/Fire_Down_Distractor.gif"",""img/Fire_Down_Distractor.gif"",""img/Fire_Down_Distractor.gif"",""img/Fire_Down_Distractor.gif"",""img/Fire_Down_Distractor.gif"",""img/Fire_Down_Distractor.gif"",""img/Fire_Down_Distractor.gif"",""img/Fire_Down_Distractor.gif""]","5","targetUp_distractorsDown"
"","","","","","html-keyboard-response","182","263298","0.0-14.0-0.0-0.84","6004c0c7e2b1453733edd35e","619531dcf66c91622fa1b861","6195a863dc4c0699dabe5243","null","","null","","","","","main_T1_ITI","","","","",""
"","","","","","visual-search-circle","183","265324","0.0-14.0-0.0-1.84","6004c0c7e2b1453733edd35e","619531dcf66c91622fa1b861","6195a863dc4c0699dabe5243","1010","","d","true","[[467,51],[210,13],[20,191],[40,451],[256,596],[505,518],[599,276]]","true","7","main_T2_Trial","d","img/Fire_Down_Target.gif","[""img/Fire_Up_Distractor.gif"",""img/Fire_Up_Distractor.gif"",""img/Fire_Up_Distractor.gif"",""img/Fire_Up_Distractor.gif"",""img/Fire_Up_Distractor.gif"",""img/Fire_Up_Distractor.gif"",""img/Fire_Up_Distractor.gif"",""img/Fire_Up_Distractor.gif"",""img/Fire_Up_Distractor.gif"",""img/Fire_Up_Distractor.gif"",""img/Fire_Up_Distractor.gif"",""img/Fire_Up_Distractor.gif""]","7","targetDown_distractorsUp"
"","","","","","html-keyboard-response","184","265324","0.0-14.0-0.0-0.85","6004c0c7e2b1453733edd35e","619531dcf66c91622fa1b861","6195a863dc4c0699dabe5243","null","","null","","","","","main_T1_ITI","","","","",""
"","","","","","visual-search-circle","185","267135","0.0-14.0-0.0-1.85","6004c0c7e2b1453733edd35e","619531dcf66c91622fa1b861","6195a863dc4c0699dabe5243","801","","s","true","[[111,533],[463,551],[589,222],[315,0],[19,192]]","false","5","main_T2_Trial","s","img/Fire_Down_Target.gif","[""img/Fire_Up_Distractor.gif"",""img/Fire_Up_Distractor.gif"",""img/Fire_Up_Distractor.gif"",""img/Fire_Up_Distractor.gif"",""img/Fire_Up_Distractor.gif"",""img/Fire_Up_Distractor.gif"",""img/Fire_Up_Distractor.gif"",""img/Fire_Up_Distractor.gif"",""img/Fire_Up_Distractor.gif"",""img/Fire_Up_Distractor.gif"",""img/Fire_Up_Distractor.gif"",""img/Fire_Up_Distractor.gif""]","5","targetDown_distractorsUp"
"","","","","","html-keyboard-response","186","267135","0.0-14.0-0.0-0.86","6004c0c7e2b1453733edd35e","619531dcf66c91622fa1b861","6195a863dc4c0699dabe5243","null","","null","","","","","main_T1_ITI","","","","",""
"","","","","","visual-search-circle","187","269000","0.0-14.0-0.0-1.86","6004c0c7e2b1453733edd35e","619531dcf66c91622fa1b861","6195a863dc4c0699dabe5243","856","","s","true","[[163,567],[424,573],[590,373],[538,118],[306,0],[69,107],[6,360]]","false","7","main_T2_Trial","s","img/Fire_Up_Target.gif","[""img/Fire_Down_Distractor.gif"",""img/Fire_Down_Distractor.gif"",""img/Fire_Down_Distractor.gif"",""img/Fire_Down_Distractor.gif"",""img/Fire_Down_Distractor.gif"",""img/Fire_Down_Distractor.gif"",""img/Fire_Down_Distractor.gif"",""img/Fire_Down_Distractor.gif"",""img/Fire_Down_Distractor.gif"",""img/Fire_Down_Distractor.gif"",""img/Fire_Down_Distractor.gif"",""img/Fire_Down_Distractor.gif""]","7","targetUp_distractorsDown"
"","","","","","html-keyboard-response","188","269000","0.0-14.0-0.0-0.87","6004c0c7e2b1453733edd35e","619531dcf66c91622fa1b861","6195a863dc4c0699dabe5243","null","","null","","","","","main_T1_ITI","","","","",""
"","","","","","visual-search-circle","189","270786","0.0-14.0-0.0-1.87","6004c0c7e2b1453733edd35e","619531dcf66c91622fa1b861","6195a863dc4c0699dabe5243","783","","s","true","[[95,519],[387,586],[592,367],[504,80],[212,13],[7,232]]","false","6","main_T2_Trial","s","img/Fire_Down_Target.gif","[""img/Fire_Up_Distractor.gif"",""img/Fire_Up_Distractor.gif"",""img/Fire_Up_Distractor.gif"",""img/Fire_Up_Distractor.gif"",""img/Fire_Up_Distractor.gif"",""img/Fire_Up_Distractor.gif"",""img/Fire_Up_Distractor.gif"",""img/Fire_Up_Distractor.gif"",""img/Fire_Up_Distractor.gif"",""img/Fire_Up_Distractor.gif"",""img/Fire_Up_Distractor.gif"",""img/Fire_Up_Distractor.gif""]","6","targetDown_distractorsUp"
"","","","","","html-keyboard-response","190","270787","0.0-14.0-0.0-0.88","6004c0c7e2b1453733edd35e","619531dcf66c91622fa1b861","6195a863dc4c0699dabe5243","null","","null","","","","","main_T1_ITI","","","","",""
"","","","","","visual-search-circle","191","272363","0.0-14.0-0.0-1.88","6004c0c7e2b1453733edd35e","619531dcf66c91622fa1b861","6195a863dc4c0699dabe5243","565","","s","true","[[592,232],[232,7],[7,367],[367,592]]","false","4","main_T2_Trial","s","img/Fire_Down_Target.gif","[""img/Fire_Up_Distractor.gif"",""img/Fire_Up_Distractor.gif"",""img/Fire_Up_Distractor.gif"",""img/Fire_Up_Distractor.gif"",""img/Fire_Up_Distractor.gif"",""img/Fire_Up_Distractor.gif"",""img/Fire_Up_Distractor.gif"",""img/Fire_Up_Distractor.gif"",""img/Fire_Up_Distractor.gif"",""img/Fire_Up_Distractor.gif"",""img/Fire_Up_Distractor.gif"",""img/Fire_Up_Distractor.gif""]","4","targetDown_distractorsUp"
"","","","","","html-keyboard-response","192","272363","0.0-14.0-0.0-0.89","6004c0c7e2b1453733edd35e","619531dcf66c91622fa1b861","6195a863dc4c0699dabe5243","null","","null","","","","","main_T1_ITI","","","","",""
"","","","","","visual-search-circle","193","274009","0.0-14.0-0.0-1.89","6004c0c7e2b1453733edd35e","619531dcf66c91622fa1b861","6195a863dc4c0699dabe5243","634","","d","true","[[13,387],[159,564],[387,586],[564,440],[586,212],[440,35],[212,13],[35,159]]","true","8","main_T2_Trial","d","img/Fire_Down_Target.gif","[""img/Fire_Up_Distractor.gif"",""img/Fire_Up_Distractor.gif"",""img/Fire_Up_Distractor.gif"",""img/Fire_Up_Distractor.gif"",""img/Fire_Up_Distractor.gif"",""img/Fire_Up_Distractor.gif"",""img/Fire_Up_Distractor.gif"",""img/Fire_Up_Distractor.gif"",""img/Fire_Up_Distractor.gif"",""img/Fire_Up_Distractor.gif"",""img/Fire_Up_Distractor.gif"",""img/Fire_Up_Distractor.gif""]","8","targetDown_distractorsUp"
"","","","","","html-keyboard-response","194","274009","0.0-14.0-0.0-0.90","6004c0c7e2b1453733edd35e","619531dcf66c91622fa1b861","6195a863dc4c0699dabe5243","null","","null","","","","","main_T1_ITI","","","","",""
"","","","","","visual-search-circle","195","275717","0.0-14.0-0.0-1.90","6004c0c7e2b1453733edd35e","619531dcf66c91622fa1b861","6195a863dc4c0699dabe5243","697","","s","true","[[522,99],[315,0],[99,77],[0,284],[77,500],[284,599],[500,522],[599,315]]","false","8","main_T2_Trial","s","img/Fire_Up_Target.gif","[""img/Fire_Down_Distractor.gif"",""img/Fire_Down_Distractor.gif"",""img/Fire_Down_Distractor.gif"",""img/Fire_Down_Distractor.gif"",""img/Fire_Down_Distractor.gif"",""img/Fire_Down_Distractor.gif"",""img/Fire_Down_Distractor.gif"",""img/Fire_Down_Distractor.gif"",""img/Fire_Down_Distractor.gif"",""img/Fire_Down_Distractor.gif"",""img/Fire_Down_Distractor.gif"",""img/Fire_Down_Distractor.gif""]","8","targetUp_distractorsDown"
"","","","","","html-keyboard-response","196","275717","0.0-14.0-0.0-0.91","6004c0c7e2b1453733edd35e","619531dcf66c91622fa1b861","6195a863dc4c0699dabe5243","null","","null","","","","","main_T1_ITI","","","","",""
"","","","","","visual-search-circle","197","277393","0.0-14.0-0.0-1.91","6004c0c7e2b1453733edd35e","619531dcf66c91622fa1b861","6195a863dc4c0699dabe5243","663","","s","true","[[159,35],[0,289],[141,554],[440,564],[599,310],[458,45]]","false","6","main_T2_Trial","s","img/Fire_Down_Target.gif","[""img/Fire_Up_Distractor.gif"",""img/Fire_Up_Distractor.gif"",""img/Fire_Up_Distractor.gif"",""img/Fire_Up_Distractor.gif"",""img/Fire_Up_Distractor.gif"",""img/Fire_Up_Distractor.gif"",""img/Fire_Up_Distractor.gif"",""img/Fire_Up_Distractor.gif"",""img/Fire_Up_Distractor.gif"",""img/Fire_Up_Distractor.gif"",""img/Fire_Up_Distractor.gif"",""img/Fire_Up_Distractor.gif""]","6","targetDown_distractorsUp"
"","","","","","html-keyboard-response","198","277393","0.0-14.0-0.0-0.92","6004c0c7e2b1453733edd35e","619531dcf66c91622fa1b861","6195a863dc4c0699dabe5243","null","","null","","","","","main_T1_ITI","","","","",""
"","","","","","visual-search-circle","199","279453","0.0-14.0-0.0-1.92","6004c0c7e2b1453733edd35e","619531dcf66c91622fa1b861","6195a863dc4c0699dabe5243","1045","","d","true","[[387,13],[13,212],[212,586],[586,387]]","true","4","main_T2_Trial","d","img/Fire_Down_Target.gif","[""img/Fire_Up_Distractor.gif"",""img/Fire_Up_Distractor.gif"",""img/Fire_Up_Distractor.gif"",""img/Fire_Up_Distractor.gif"",""img/Fire_Up_Distractor.gif"",""img/Fire_Up_Distractor.gif"",""img/Fire_Up_Distractor.gif"",""img/Fire_Up_Distractor.gif"",""img/Fire_Up_Distractor.gif"",""img/Fire_Up_Distractor.gif"",""img/Fire_Up_Distractor.gif"",""img/Fire_Up_Distractor.gif""]","4","targetDown_distractorsUp"
"","","","","","html-keyboard-response","200","279453","0.0-14.0-0.0-0.93","6004c0c7e2b1453733edd35e","619531dcf66c91622fa1b861","6195a863dc4c0699dabe5243","null","","null","","","","","main_T1_ITI","","","","",""
"","","","","","visual-search-circle","201","281149","0.0-14.0-0.0-1.93","6004c0c7e2b1453733edd35e","619531dcf66c91622fa1b861","6195a863dc4c0699dabe5243","681","","s","true","[[0,279],[279,599],[599,320],[320,0]]","false","4","main_T2_Trial","s","img/Fire_Up_Target.gif","[""img/Fire_Down_Distractor.gif"",""img/Fire_Down_Distractor.gif"",""img/Fire_Down_Distractor.gif"",""img/Fire_Down_Distractor.gif"",""img/Fire_Down_Distractor.gif"",""img/Fire_Down_Distractor.gif"",""img/Fire_Down_Distractor.gif"",""img/Fire_Down_Distractor.gif"",""img/Fire_Down_Distractor.gif"",""img/Fire_Down_Distractor.gif"",""img/Fire_Down_Distractor.gif"",""img/Fire_Down_Distractor.gif""]","4","targetUp_distractorsDown"
"","","","","","html-keyboard-response","202","281150","0.0-14.0-0.0-0.94","6004c0c7e2b1453733edd35e","619531dcf66c91622fa1b861","6195a863dc4c0699dabe5243","null","","null","","","","","main_T1_ITI","","","","",""
"","","","","","visual-search-circle","203","282826","0.0-14.0-0.0-1.94","6004c0c7e2b1453733edd35e","619531dcf66c91622fa1b861","6195a863dc4c0699dabe5243","663","","d","true","[[192,580],[451,558],[596,342],[518,94],[275,1],[50,132],[13,390]]","true","7","main_T2_Trial","d","img/Fire_Up_Target.gif","[""img/Fire_Down_Distractor.gif"",""img/Fire_Down_Distractor.gif"",""img/Fire_Down_Distractor.gif"",""img/Fire_Down_Distractor.gif"",""img/Fire_Down_Distractor.gif"",""img/Fire_Down_Distractor.gif"",""img/Fire_Down_Distractor.gif"",""img/Fire_Down_Distractor.gif"",""img/Fire_Down_Distractor.gif"",""img/Fire_Down_Distractor.gif"",""img/Fire_Down_Distractor.gif"",""img/Fire_Down_Distractor.gif""]","7","targetUp_distractorsDown"
"","","","","","html-keyboard-response","204","282826","0.0-14.0-0.0-0.95","6004c0c7e2b1453733edd35e","619531dcf66c91622fa1b861","6195a863dc4c0699dabe5243","null","","null","","","","","main_T1_ITI","","","","",""
"","","","","","visual-search-circle","205","284643","0.0-14.0-0.0-1.95","6004c0c7e2b1453733edd35e","619531dcf66c91622fa1b861","6195a863dc4c0699dabe5243","810","","d","true","[[519,95],[276,0],[51,131],[13,389],[191,579],[450,559],[596,343]]","true","7","main_T2_Trial","d","img/Fire_Down_Target.gif","[""img/Fire_Up_Distractor.gif"",""img/Fire_Up_Distractor.gif"",""img/Fire_Up_Distractor.gif"",""img/Fire_Up_Distractor.gif"",""img/Fire_Up_Distractor.gif"",""img/Fire_Up_Distractor.gif"",""img/Fire_Up_Distractor.gif"",""img/Fire_Up_Distractor.gif"",""img/Fire_Up_Distractor.gif"",""img/Fire_Up_Distractor.gif"",""img/Fire_Up_Distractor.gif"",""img/Fire_Up_Distractor.gif""]","7","targetDown_distractorsUp"
"","","","","","html-keyboard-response","206","284644","0.0-14.0-0.0-0.96","6004c0c7e2b1453733edd35e","619531dcf66c91622fa1b861","6195a863dc4c0699dabe5243","null","","null","","","","","main_T1_ITI","","","","",""
"","","","","","visual-search-circle","207","286566","0.0-14.0-0.0-1.96","6004c0c7e2b1453733edd35e","619531dcf66c91622fa1b861","6195a863dc4c0699dabe5243","918","","d","true","[[598,331],[476,57],[177,25],[1,268],[123,542],[422,574]]","true","6","main_T2_Trial","d","img/Fire_Down_Target.gif","[""img/Fire_Up_Distractor.gif"",""img/Fire_Up_Distractor.gif"",""img/Fire_Up_Distractor.gif"",""img/Fire_Up_Distractor.gif"",""img/Fire_Up_Distractor.gif"",""img/Fire_Up_Distractor.gif"",""img/Fire_Up_Distractor.gif"",""img/Fire_Up_Distractor.gif"",""img/Fire_Up_Distractor.gif"",""img/Fire_Up_Distractor.gif"",""img/Fire_Up_Distractor.gif"",""img/Fire_Up_Distractor.gif""]","6","targetDown_distractorsUp"
"","","","","","html-keyboard-response","208","286567","0.0-14.0-0.0-0.97","6004c0c7e2b1453733edd35e","619531dcf66c91622fa1b861","6195a863dc4c0699dabe5243","null","","null","","","","","main_T1_ITI","","","","",""
"","","","","","visual-search-circle","209","288468","0.0-14.0-0.0-1.97","6004c0c7e2b1453733edd35e","619531dcf66c91622fa1b861","6195a863dc4c0699dabe5243","893","","s","true","[[352,595],[545,472],[595,247],[472,54],[247,4],[54,127],[4,352],[127,545]]","false","8","main_T2_Trial","s","img/Fire_Down_Target.gif","[""img/Fire_Up_Distractor.gif"",""img/Fire_Up_Distractor.gif"",""img/Fire_Up_Distractor.gif"",""img/Fire_Up_Distractor.gif"",""img/Fire_Up_Distractor.gif"",""img/Fire_Up_Distractor.gif"",""img/Fire_Up_Distractor.gif"",""img/Fire_Up_Distractor.gif"",""img/Fire_Up_Distractor.gif"",""img/Fire_Up_Distractor.gif"",""img/Fire_Up_Distractor.gif"",""img/Fire_Up_Distractor.gif""]","8","targetDown_distractorsUp"
"","","","","","html-keyboard-response","210","288469","0.0-14.0-0.0-0.98","6004c0c7e2b1453733edd35e","619531dcf66c91622fa1b861","6195a863dc4c0699dabe5243","null","","null","","","","","main_T1_ITI","","","","",""
"","","","","","visual-search-circle","211","290107","0.0-14.0-0.0-1.98","6004c0c7e2b1453733edd35e","619531dcf66c91622fa1b861","6195a863dc4c0699dabe5243","626","","s","true","[[515,91],[305,0],[91,84],[0,294],[84,508],[294,599],[508,515],[599,305]]","false","8","main_T2_Trial","s","img/Fire_Up_Target.gif","[""img/Fire_Down_Distractor.gif"",""img/Fire_Down_Distractor.gif"",""img/Fire_Down_Distractor.gif"",""img/Fire_Down_Distractor.gif"",""img/Fire_Down_Distractor.gif"",""img/Fire_Down_Distractor.gif"",""img/Fire_Down_Distractor.gif"",""img/Fire_Down_Distractor.gif"",""img/Fire_Down_Distractor.gif"",""img/Fire_Down_Distractor.gif"",""img/Fire_Down_Distractor.gif"",""img/Fire_Down_Distractor.gif""]","8","targetUp_distractorsDown"
"","","","","","html-keyboard-response","212","293060","0.0-14.0-0.0-0.99","6004c0c7e2b1453733edd35e","619531dcf66c91622fa1b861","6195a863dc4c0699dabe5243","2952","Wow! You've completed 100 out of 160 trials! </p> <p>  </p><p> Take a quick break, then press any key when you're ready to continue."," ","","","","","main_T1_ITI","","","","",""
"","","","","","visual-search-circle","213","294864","0.0-14.0-0.0-1.99","6004c0c7e2b1453733edd35e","619531dcf66c91622fa1b861","6195a863dc4c0699dabe5243","791","","s","true","[[492,70],[273,1],[70,107],[1,326],[107,529],[326,598],[529,492],[598,273]]","false","8","main_T2_Trial","s","img/Fire_Down_Target.gif","[""img/Fire_Up_Distractor.gif"",""img/Fire_Up_Distractor.gif"",""img/Fire_Up_Distractor.gif"",""img/Fire_Up_Distractor.gif"",""img/Fire_Up_Distractor.gif"",""img/Fire_Up_Distractor.gif"",""img/Fire_Up_Distractor.gif"",""img/Fire_Up_Distractor.gif"",""img/Fire_Up_Distractor.gif"",""img/Fire_Up_Distractor.gif"",""img/Fire_Up_Distractor.gif"",""img/Fire_Up_Distractor.gif""]","8","targetDown_distractorsUp"
"","","","","","html-keyboard-response","214","294864","0.0-14.0-0.0-0.100","6004c0c7e2b1453733edd35e","619531dcf66c91622fa1b861","6195a863dc4c0699dabe5243","null","","null","","","","","main_T1_ITI","","","","",""
"","","","","","visual-search-circle","215","296510","0.0-14.0-0.0-1.100","6004c0c7e2b1453733edd35e","619531dcf66c91622fa1b861","6195a863dc4c0699dabe5243","630","","d","true","[[336,597],[576,417],[539,119],[263,2],[23,182],[60,480]]","true","6","main_T2_Trial","d","img/Fire_Up_Target.gif","[""img/Fire_Down_Distractor.gif"",""img/Fire_Down_Distractor.gif"",""img/Fire_Down_Distractor.gif"",""img/Fire_Down_Distractor.gif"",""img/Fire_Down_Distractor.gif"",""img/Fire_Down_Distractor.gif"",""img/Fire_Down_Distractor.gif"",""img/Fire_Down_Distractor.gif"",""img/Fire_Down_Distractor.gif"",""img/Fire_Down_Distractor.gif"",""img/Fire_Down_Distractor.gif"",""img/Fire_Down_Distractor.gif""]","6","targetUp_distractorsDown"
"","","","","","html-keyboard-response","216","296510","0.0-14.0-0.0-0.101","6004c0c7e2b1453733edd35e","619531dcf66c91622fa1b861","6195a863dc4c0699dabe5243","null","","null","","","","","main_T1_ITI","","","","",""
"","","","","","visual-search-circle","217","298345","0.0-14.0-0.0-1.101","6004c0c7e2b1453733edd35e","619531dcf66c91622fa1b861","6195a863dc4c0699dabe5243","832","","d","true","[[0,289],[289,599],[599,310],[310,0]]","true","4","main_T2_Trial","d","img/Fire_Up_Target.gif","[""img/Fire_Down_Distractor.gif"",""img/Fire_Down_Distractor.gif"",""img/Fire_Down_Distractor.gif"",""img/Fire_Down_Distractor.gif"",""img/Fire_Down_Distractor.gif"",""img/Fire_Down_Distractor.gif"",""img/Fire_Down_Distractor.gif"",""img/Fire_Down_Distractor.gif"",""img/Fire_Down_Distractor.gif"",""img/Fire_Down_Distractor.gif"",""img/Fire_Down_Distractor.gif"",""img/Fire_Down_Distractor.gif""]","4","targetUp_distractorsDown"
"","","","","","html-keyboard-response","218","298345","0.0-14.0-0.0-0.102","6004c0c7e2b1453733edd35e","619531dcf66c91622fa1b861","6195a863dc4c0699dabe5243","null","","null","","","","","main_T1_ITI","","","","",""
