"success","timeout","failed_images","failed_audio","failed_video","trial_type","trial_index","time_elapsed","internal_node_id","subject_id","study_id","session_id","rt","stimulus","response","correct","locations","target_present","set_size","task","correct_response","target","foilCM","setSizeCM","searchCondition"
"true","false","[]","[]","[]","preload","0","10311","0.0-0.0","6009c2eda21be3026447d80e","619531dcf66c91622fa1b861","6195956ed32b22cf4649fc9b","","","","","","","","","","","","",""
"true","","","","","fullscreen","1","18538","0.0-1.0","6009c2eda21be3026447d80e","619531dcf66c91622fa1b861","6195956ed32b22cf4649fc9b","","","","","","","","","","","","",""
"","","","","","html-keyboard-response","2","20661","0.0-2.0","6009c2eda21be3026447d80e","619531dcf66c91622fa1b861","6195956ed32b22cf4649fc9b","2122","What a beautiful Wednesday to do some awesome science! </p> <p>  </p><p> </p>
    By completing this survey or questionnaire, you are consenting to be in this research study. </p>
    Your participation is voluntary and you can stop at any time.
    <p> [Press any key to continue.] </p>
    
    ","enter","","","","","","","","","",""
"","","","","","video-keyboard-response","3","68602","0.0-3.0","6009c2eda21be3026447d80e","619531dcf66c91622fa1b861","6195956ed32b22cf4649fc9b","47937.59999999404","[""video/TaskInstructions.mp4""]"," ","","","","","","","","","",""
"","","","","","html-keyboard-response","4","73982","0.0-4.0","6009c2eda21be3026447d80e","619531dcf66c91622fa1b861","6195956ed32b22cf4649fc9b","5378.399999976158","
    <p>First, we're going to do a few practice trials to make sure you understand the task. You will recieve feedback on each trial. </p>
    <p>[Press any key to begin the familiarization phase.]</p>
    "," ","","","","","","","","","",""
"","","","","","visual-search-circle","5","76545","0.0-5.0-0.0","6009c2eda21be3026447d80e","619531dcf66c91622fa1b861","6195956ed32b22cf4649fc9b","1487","","d","true","[[127,545],[545,472],[472,54],[54,127]]","true","4","training","d","","","",""
"","","","","","html-keyboard-response","6","86537","0.0-6.0","6009c2eda21be3026447d80e","619531dcf66c91622fa1b861","6195956ed32b22cf4649fc9b","9991.899999976158"," <div style='float: center; '><img src='img/feedbackRight.png'></img> </div> "," ","","","","","","","","","",""
"","","","","","visual-search-circle","7","88880","0.0-7.0-0.0","6009c2eda21be3026447d80e","619531dcf66c91622fa1b861","6195956ed32b22cf4649fc9b","1332.0999999940395","","s","true","[[2,341],[341,597],[597,258],[258,2]]","false","4","training","s","","","",""
"","","","","","html-keyboard-response","8","92591","0.0-8.0","6009c2eda21be3026447d80e","619531dcf66c91622fa1b861","6195956ed32b22cf4649fc9b","3710.5"," <div style='float: center; '><img src='img/feedbackRight.png'></img> </div> "," ","","","","","","","","","",""
"","","","","","visual-search-circle","9","94765","0.0-9.0-0.0","6009c2eda21be3026447d80e","619531dcf66c91622fa1b861","6195956ed32b22cf4649fc9b","1156.5","","s","true","[[119,539],[417,576],[597,336],[480,60],[182,23],[2,263]]","false","6","training","s","","","",""
"","","","","","html-keyboard-response","10","95864","0.0-10.0","6009c2eda21be3026447d80e","619531dcf66c91622fa1b861","6195956ed32b22cf4649fc9b","1098.0999999940395"," <div style='float: center; '><img src='img/feedbackRight.png'></img> </div> "," ","","","","","","","","","",""
"","","","","","visual-search-circle","11","97925","0.0-11.0-0.0","6009c2eda21be3026447d80e","619531dcf66c91622fa1b861","6195956ed32b22cf4649fc9b","1049.5999999940395","","d","true","[[407,580],[574,422],[580,192],[422,25],[192,19],[25,177],[19,407],[177,574]]","true","8","training","d","","","",""
"","","","","","html-keyboard-response","12","99362","0.0-12.0","6009c2eda21be3026447d80e","619531dcf66c91622fa1b861","6195956ed32b22cf4649fc9b","1435.7000000178814"," <div style='float: center; '><img src='img/feedbackRight.png'></img> </div> "," ","","","","","","","","","",""
"","","","","","video-keyboard-response","13","105058","0.0-13.0","6009c2eda21be3026447d80e","619531dcf66c91622fa1b861","6195956ed32b22cf4649fc9b","5692.4000000059605","[""video/endTraining.mp4""]"," ","","","","","","","","","",""
"","","","","","html-keyboard-response","14","105063","0.0-14.0-0.0-0.0","6009c2eda21be3026447d80e","619531dcf66c91622fa1b861","6195956ed32b22cf4649fc9b","null","","null","","","","","main_T1_ITI","","","","",""
"","","","","","visual-search-circle","15","107012","0.0-14.0-0.0-1.0","6009c2eda21be3026447d80e","619531dcf66c91622fa1b861","6195956ed32b22cf4649fc9b","935.5999999940395","","d","false","[[598,331],[476,57],[177,25],[1,268],[123,542],[422,574]]","false","6","main_T2_Trial","s","img/Fire_Up_Target.gif","[""img/Fire_Down_Distractor.gif"",""img/Fire_Down_Distractor.gif"",""img/Fire_Down_Distractor.gif"",""img/Fire_Down_Distractor.gif"",""img/Fire_Down_Distractor.gif"",""img/Fire_Down_Distractor.gif"",""img/Fire_Down_Distractor.gif"",""img/Fire_Down_Distractor.gif"",""img/Fire_Down_Distractor.gif"",""img/Fire_Down_Distractor.gif"",""img/Fire_Down_Distractor.gif"",""img/Fire_Down_Distractor.gif""]","6","targetUp_distractorsDown"
"","","","","","html-keyboard-response","16","107014","0.0-14.0-0.0-0.1","6009c2eda21be3026447d80e","619531dcf66c91622fa1b861","6195956ed32b22cf4649fc9b","null","","null","","","","","main_T1_ITI","","","","",""
"","","","","","visual-search-circle","17","109230","0.0-14.0-0.0-1.1","6009c2eda21be3026447d80e","619531dcf66c91622fa1b861","6195956ed32b22cf4649fc9b","1200.800000011921","","d","false","[[402,581],[584,395],[552,137],[329,1],[85,90],[2,337],[143,555]]","false","7","main_T2_Trial","s","img/Fire_Up_Target.gif","[""img/Fire_Down_Distractor.gif"",""img/Fire_Down_Distractor.gif"",""img/Fire_Down_Distractor.gif"",""img/Fire_Down_Distractor.gif"",""img/Fire_Down_Distractor.gif"",""img/Fire_Down_Distractor.gif"",""img/Fire_Down_Distractor.gif"",""img/Fire_Down_Distractor.gif"",""img/Fire_Down_Distractor.gif"",""img/Fire_Down_Distractor.gif"",""img/Fire_Down_Distractor.gif"",""img/Fire_Down_Distractor.gif""]","7","targetUp_distractorsDown"
"","","","","","html-keyboard-response","18","109233","0.0-14.0-0.0-0.2","6009c2eda21be3026447d80e","619531dcf66c91622fa1b861","6195956ed32b22cf4649fc9b","null","","null","","","","","main_T1_ITI","","","","",""
"","","","","","visual-search-circle","19","111289","0.0-14.0-0.0-1.2","6009c2eda21be3026447d80e","619531dcf66c91622fa1b861","6195956ed32b22cf4649fc9b","1046.5","","s","false","[[585,207],[207,14],[14,392],[392,585]]","true","4","main_T2_Trial","d","img/Fire_Down_Target.gif","[""img/Fire_Up_Distractor.gif"",""img/Fire_Up_Distractor.gif"",""img/Fire_Up_Distractor.gif"",""img/Fire_Up_Distractor.gif"",""img/Fire_Up_Distractor.gif"",""img/Fire_Up_Distractor.gif"",""img/Fire_Up_Distractor.gif"",""img/Fire_Up_Distractor.gif"",""img/Fire_Up_Distractor.gif"",""img/Fire_Up_Distractor.gif"",""img/Fire_Up_Distractor.gif"",""img/Fire_Up_Distractor.gif""]","4","targetDown_distractorsUp"
"","","","","","html-keyboard-response","20","111291","0.0-14.0-0.0-0.3","6009c2eda21be3026447d80e","619531dcf66c91622fa1b861","6195956ed32b22cf4649fc9b","null","","null","","","","","main_T1_ITI","","","","",""
"","","","","","visual-search-circle","21","117329","0.0-14.0-0.0-1.3","6009c2eda21be3026447d80e","619531dcf66c91622fa1b861","6195956ed32b22cf4649fc9b","5023.899999976158","","s","true","[[595,352],[545,127],[352,4],[127,54],[4,247],[54,472],[247,595],[472,545]]","false","8","main_T2_Trial","s","img/Fire_Up_Target.gif","[""img/Fire_Down_Distractor.gif"",""img/Fire_Down_Distractor.gif"",""img/Fire_Down_Distractor.gif"",""img/Fire_Down_Distractor.gif"",""img/Fire_Down_Distractor.gif"",""img/Fire_Down_Distractor.gif"",""img/Fire_Down_Distractor.gif"",""img/Fire_Down_Distractor.gif"",""img/Fire_Down_Distractor.gif"",""img/Fire_Down_Distractor.gif"",""img/Fire_Down_Distractor.gif"",""img/Fire_Down_Distractor.gif""]","8","targetUp_distractorsDown"
"","","","","","html-keyboard-response","22","117336","0.0-14.0-0.0-0.4","6009c2eda21be3026447d80e","619531dcf66c91622fa1b861","6195956ed32b22cf4649fc9b","null","","null","","","","","main_T1_ITI","","","","",""
"","","","","","visual-search-circle","23","119986","0.0-14.0-0.0-1.4","6009c2eda21be3026447d80e","619531dcf66c91622fa1b861","6195956ed32b22cf4649fc9b","1640.9000000059605","","d","false","[[136,48],[48,463],[463,551],[551,136]]","false","4","main_T2_Trial","s","img/Fire_Down_Target.gif","[""img/Fire_Up_Distractor.gif"",""img/Fire_Up_Distractor.gif"",""img/Fire_Up_Distractor.gif"",""img/Fire_Up_Distractor.gif"",""img/Fire_Up_Distractor.gif"",""img/Fire_Up_Distractor.gif"",""img/Fire_Up_Distractor.gif"",""img/Fire_Up_Distractor.gif"",""img/Fire_Up_Distractor.gif"",""img/Fire_Up_Distractor.gif"",""img/Fire_Up_Distractor.gif"",""img/Fire_Up_Distractor.gif""]","4","targetDown_distractorsUp"
"","","","","","html-keyboard-response","24","119996","0.0-14.0-0.0-0.5","6009c2eda21be3026447d80e","619531dcf66c91622fa1b861","6195956ed32b22cf4649fc9b","null","","null","","","","","main_T1_ITI","","","","",""
"","","","","","visual-search-circle","25","122320","0.0-14.0-0.0-1.5","6009c2eda21be3026447d80e","619531dcf66c91622fa1b861","6195956ed32b22cf4649fc9b","1316.9000000059605","","d","true","[[168,569],[397,583],[569,431],[583,202],[431,30],[202,16],[30,168],[16,397]]","true","8","main_T2_Trial","d","img/Fire_Down_Target.gif","[""img/Fire_Up_Distractor.gif"",""img/Fire_Up_Distractor.gif"",""img/Fire_Up_Distractor.gif"",""img/Fire_Up_Distractor.gif"",""img/Fire_Up_Distractor.gif"",""img/Fire_Up_Distractor.gif"",""img/Fire_Up_Distractor.gif"",""img/Fire_Up_Distractor.gif"",""img/Fire_Up_Distractor.gif"",""img/Fire_Up_Distractor.gif"",""img/Fire_Up_Distractor.gif"",""img/Fire_Up_Distractor.gif""]","8","targetDown_distractorsUp"
"","","","","","html-keyboard-response","26","122323","0.0-14.0-0.0-0.6","6009c2eda21be3026447d80e","619531dcf66c91622fa1b861","6195956ed32b22cf4649fc9b","null","","null","","","","","main_T1_ITI","","","","",""
"","","","","","visual-search-circle","27","124124","0.0-14.0-0.0-1.6","6009c2eda21be3026447d80e","619531dcf66c91622fa1b861","6195956ed32b22cf4649fc9b","793.9000000059605","","d","true","[[326,598],[571,426],[545,127],[273,1],[28,173],[54,472]]","true","6","main_T2_Trial","d","img/Fire_Down_Target.gif","[""img/Fire_Up_Distractor.gif"",""img/Fire_Up_Distractor.gif"",""img/Fire_Up_Distractor.gif"",""img/Fire_Up_Distractor.gif"",""img/Fire_Up_Distractor.gif"",""img/Fire_Up_Distractor.gif"",""img/Fire_Up_Distractor.gif"",""img/Fire_Up_Distractor.gif"",""img/Fire_Up_Distractor.gif"",""img/Fire_Up_Distractor.gif"",""img/Fire_Up_Distractor.gif"",""img/Fire_Up_Distractor.gif""]","6","targetDown_distractorsUp"
"","","","","","html-keyboard-response","28","124125","0.0-14.0-0.0-0.7","6009c2eda21be3026447d80e","619531dcf66c91622fa1b861","6195956ed32b22cf4649fc9b","null","","null","","","","","main_T1_ITI","","","","",""
"","","","","","visual-search-circle","29","126988","0.0-14.0-0.0-1.7","6009c2eda21be3026447d80e","619531dcf66c91622fa1b861","6195956ed32b22cf4649fc9b","1854.5999999940395","","s","true","[[515,508],[599,294],[508,84],[294,0],[84,91],[0,305],[91,515],[305,599]]","false","8","main_T2_Trial","s","img/Fire_Down_Target.gif","[""img/Fire_Up_Distractor.gif"",""img/Fire_Up_Distractor.gif"",""img/Fire_Up_Distractor.gif"",""img/Fire_Up_Distractor.gif"",""img/Fire_Up_Distractor.gif"",""img/Fire_Up_Distractor.gif"",""img/Fire_Up_Distractor.gif"",""img/Fire_Up_Distractor.gif"",""img/Fire_Up_Distractor.gif"",""img/Fire_Up_Distractor.gif"",""img/Fire_Up_Distractor.gif"",""img/Fire_Up_Distractor.gif""]","8","targetDown_distractorsUp"
"","","","","","html-keyboard-response","30","126991","0.0-14.0-0.0-0.8","6009c2eda21be3026447d80e","619531dcf66c91622fa1b861","6195956ed32b22cf4649fc9b","null","","null","","","","","main_T1_ITI","","","","",""
"","","","","","visual-search-circle","31","128995","0.0-14.0-0.0-1.8","6009c2eda21be3026447d80e","619531dcf66c91622fa1b861","6195956ed32b22cf4649fc9b","991.5999999940395","","s","true","[[480,539],[583,202],[294,0],[13,212],[127,545]]","false","5","main_T2_Trial","s","img/Fire_Up_Target.gif","[""img/Fire_Down_Distractor.gif"",""img/Fire_Down_Distractor.gif"",""img/Fire_Down_Distractor.gif"",""img/Fire_Down_Distractor.gif"",""img/Fire_Down_Distractor.gif"",""img/Fire_Down_Distractor.gif"",""img/Fire_Down_Distractor.gif"",""img/Fire_Down_Distractor.gif"",""img/Fire_Down_Distractor.gif"",""img/Fire_Down_Distractor.gif"",""img/Fire_Down_Distractor.gif"",""img/Fire_Down_Distractor.gif""]","5","targetUp_distractorsDown"
"","","","","","html-keyboard-response","32","128997","0.0-14.0-0.0-0.9","6009c2eda21be3026447d80e","619531dcf66c91622fa1b861","6195956ed32b22cf4649fc9b","null","","null","","","","","main_T1_ITI","","","","",""
"","","","","","visual-search-circle","33","130933","0.0-14.0-0.0-1.9","6009c2eda21be3026447d80e","619531dcf66c91622fa1b861","6195956ed32b22cf4649fc9b","919.2000000178814","","d","true","[[529,492],[581,197],[352,4],[70,107],[18,402],[247,595]]","true","6","main_T2_Trial","d","img/Fire_Down_Target.gif","[""img/Fire_Up_Distractor.gif"",""img/Fire_Up_Distractor.gif"",""img/Fire_Up_Distractor.gif"",""img/Fire_Up_Distractor.gif"",""img/Fire_Up_Distractor.gif"",""img/Fire_Up_Distractor.gif"",""img/Fire_Up_Distractor.gif"",""img/Fire_Up_Distractor.gif"",""img/Fire_Up_Distractor.gif"",""img/Fire_Up_Distractor.gif"",""img/Fire_Up_Distractor.gif"",""img/Fire_Up_Distractor.gif""]","6","targetDown_distractorsUp"
"","","","","","html-keyboard-response","34","130935","0.0-14.0-0.0-0.10","6009c2eda21be3026447d80e","619531dcf66c91622fa1b861","6195956ed32b22cf4649fc9b","null","","null","","","","","main_T1_ITI","","","","",""
"","","","","","visual-search-circle","35","133873","0.0-14.0-0.0-1.10","6009c2eda21be3026447d80e","619531dcf66c91622fa1b861","6195956ed32b22cf4649fc9b","1921.9000000059605","","s","true","[[512,512],[589,222],[377,10],[87,87],[10,377],[222,589]]","false","6","main_T2_Trial","s","img/Fire_Up_Target.gif","[""img/Fire_Down_Distractor.gif"",""img/Fire_Down_Distractor.gif"",""img/Fire_Down_Distractor.gif"",""img/Fire_Down_Distractor.gif"",""img/Fire_Down_Distractor.gif"",""img/Fire_Down_Distractor.gif"",""img/Fire_Down_Distractor.gif"",""img/Fire_Down_Distractor.gif"",""img/Fire_Down_Distractor.gif"",""img/Fire_Down_Distractor.gif"",""img/Fire_Down_Distractor.gif"",""img/Fire_Down_Distractor.gif""]","6","targetUp_distractorsDown"
"","","","","","html-keyboard-response","36","133875","0.0-14.0-0.0-0.11","6009c2eda21be3026447d80e","619531dcf66c91622fa1b861","6195956ed32b22cf4649fc9b","null","","null","","","","","main_T1_ITI","","","","",""
"","","","","","visual-search-circle","37","136420","0.0-14.0-0.0-1.11","6009c2eda21be3026447d80e","619531dcf66c91622fa1b861","6195956ed32b22cf4649fc9b","1537.300000011921","","s","true","[[508,84],[159,35],[4,352],[258,597],[569,431]]","false","5","main_T2_Trial","s","img/Fire_Up_Target.gif","[""img/Fire_Down_Distractor.gif"",""img/Fire_Down_Distractor.gif"",""img/Fire_Down_Distractor.gif"",""img/Fire_Down_Distractor.gif"",""img/Fire_Down_Distractor.gif"",""img/Fire_Down_Distractor.gif"",""img/Fire_Down_Distractor.gif"",""img/Fire_Down_Distractor.gif"",""img/Fire_Down_Distractor.gif"",""img/Fire_Down_Distractor.gif"",""img/Fire_Down_Distractor.gif"",""img/Fire_Down_Distractor.gif""]","5","targetUp_distractorsDown"
"","","","","","html-keyboard-response","38","136421","0.0-14.0-0.0-0.12","6009c2eda21be3026447d80e","619531dcf66c91622fa1b861","6195956ed32b22cf4649fc9b","null","","null","","","","","main_T1_ITI","","","","",""
"","","","","","visual-search-circle","39","138418","0.0-14.0-0.0-1.12","6009c2eda21be3026447d80e","619531dcf66c91622fa1b861","6195956ed32b22cf4649fc9b","975.5999999940395","","d","true","[[14,207],[32,436],[207,585],[436,567],[585,392],[567,163],[392,14],[163,32]]","true","8","main_T2_Trial","d","img/Fire_Up_Target.gif","[""img/Fire_Down_Distractor.gif"",""img/Fire_Down_Distractor.gif"",""img/Fire_Down_Distractor.gif"",""img/Fire_Down_Distractor.gif"",""img/Fire_Down_Distractor.gif"",""img/Fire_Down_Distractor.gif"",""img/Fire_Down_Distractor.gif"",""img/Fire_Down_Distractor.gif"",""img/Fire_Down_Distractor.gif"",""img/Fire_Down_Distractor.gif"",""img/Fire_Down_Distractor.gif"",""img/Fire_Down_Distractor.gif""]","8","targetUp_distractorsDown"
"","","","","","html-keyboard-response","40","138420","0.0-14.0-0.0-0.13","6009c2eda21be3026447d80e","619531dcf66c91622fa1b861","6195956ed32b22cf4649fc9b","null","","null","","","","","main_T1_ITI","","","","",""
"","","","","","visual-search-circle","41","141321","0.0-14.0-0.0-1.13","6009c2eda21be3026447d80e","619531dcf66c91622fa1b861","6195956ed32b22cf4649fc9b","1893.800000011921","","d","true","[[32,163],[48,463],[315,599],[567,436],[551,136],[284,0]]","true","6","main_T2_Trial","d","img/Fire_Up_Target.gif","[""img/Fire_Down_Distractor.gif"",""img/Fire_Down_Distractor.gif"",""img/Fire_Down_Distractor.gif"",""img/Fire_Down_Distractor.gif"",""img/Fire_Down_Distractor.gif"",""img/Fire_Down_Distractor.gif"",""img/Fire_Down_Distractor.gif"",""img/Fire_Down_Distractor.gif"",""img/Fire_Down_Distractor.gif"",""img/Fire_Down_Distractor.gif"",""img/Fire_Down_Distractor.gif"",""img/Fire_Down_Distractor.gif""]","6","targetUp_distractorsDown"
"","","","","","html-keyboard-response","42","141323","0.0-14.0-0.0-0.14","6009c2eda21be3026447d80e","619531dcf66c91622fa1b861","6195956ed32b22cf4649fc9b","null","","null","","","","","main_T1_ITI","","","","",""
"","","","","","visual-search-circle","43","144846","0.0-14.0-0.0-1.14","6009c2eda21be3026447d80e","619531dcf66c91622fa1b861","6195956ed32b22cf4649fc9b","2513.5","","s","true","[[237,6],[48,136],[6,362],[136,551],[362,593],[551,463],[593,237],[463,48]]","false","8","main_T2_Trial","s","img/Fire_Down_Target.gif","[""img/Fire_Up_Distractor.gif"",""img/Fire_Up_Distractor.gif"",""img/Fire_Up_Distractor.gif"",""img/Fire_Up_Distractor.gif"",""img/Fire_Up_Distractor.gif"",""img/Fire_Up_Distractor.gif"",""img/Fire_Up_Distractor.gif"",""img/Fire_Up_Distractor.gif"",""img/Fire_Up_Distractor.gif"",""img/Fire_Up_Distractor.gif"",""img/Fire_Up_Distractor.gif"",""img/Fire_Up_Distractor.gif""]","8","targetDown_distractorsUp"
"","","","","","html-keyboard-response","44","144848","0.0-14.0-0.0-0.15","6009c2eda21be3026447d80e","619531dcf66c91622fa1b861","6195956ed32b22cf4649fc9b","null","","null","","","","","main_T1_ITI","","","","",""
"","","","","","visual-search-circle","45","147462","0.0-14.0-0.0-1.15","6009c2eda21be3026447d80e","619531dcf66c91622fa1b861","6195956ed32b22cf4649fc9b","1602.4000000059605","","s","false","[[512,87],[222,10],[10,222],[87,512],[377,589],[589,377]]","true","6","main_T2_Trial","d","img/Fire_Down_Target.gif","[""img/Fire_Up_Distractor.gif"",""img/Fire_Up_Distractor.gif"",""img/Fire_Up_Distractor.gif"",""img/Fire_Up_Distractor.gif"",""img/Fire_Up_Distractor.gif"",""img/Fire_Up_Distractor.gif"",""img/Fire_Up_Distractor.gif"",""img/Fire_Up_Distractor.gif"",""img/Fire_Up_Distractor.gif"",""img/Fire_Up_Distractor.gif"",""img/Fire_Up_Distractor.gif"",""img/Fire_Up_Distractor.gif""]","6","targetDown_distractorsUp"
"","","","","","html-keyboard-response","46","147465","0.0-14.0-0.0-0.16","6009c2eda21be3026447d80e","619531dcf66c91622fa1b861","6195956ed32b22cf4649fc9b","null","","null","","","","","main_T1_ITI","","","","",""
"","","","","","visual-search-circle","47","149616","0.0-14.0-0.0-1.16","6009c2eda21be3026447d80e","619531dcf66c91622fa1b861","6195956ed32b22cf4649fc9b","1132.199999988079","","d","true","[[54,472],[281,599],[522,501],[596,251],[446,38],[186,22],[12,215]]","true","7","main_T2_Trial","d","img/Fire_Up_Target.gif","[""img/Fire_Down_Distractor.gif"",""img/Fire_Down_Distractor.gif"",""img/Fire_Down_Distractor.gif"",""img/Fire_Down_Distractor.gif"",""img/Fire_Down_Distractor.gif"",""img/Fire_Down_Distractor.gif"",""img/Fire_Down_Distractor.gif"",""img/Fire_Down_Distractor.gif"",""img/Fire_Down_Distractor.gif"",""img/Fire_Down_Distractor.gif"",""img/Fire_Down_Distractor.gif"",""img/Fire_Down_Distractor.gif""]","7","targetUp_distractorsDown"
"","","","","","html-keyboard-response","48","149617","0.0-14.0-0.0-0.17","6009c2eda21be3026447d80e","619531dcf66c91622fa1b861","6195956ed32b22cf4649fc9b","null","","null","","","","","main_T1_ITI","","","","",""
"","","","","","visual-search-circle","49","151968","0.0-14.0-0.0-1.17","6009c2eda21be3026447d80e","619531dcf66c91622fa1b861","6195956ed32b22cf4649fc9b","1341.5","","s","true","[[542,476],[476,57],[57,123],[123,542]]","false","4","main_T2_Trial","s","img/Fire_Up_Target.gif","[""img/Fire_Down_Distractor.gif"",""img/Fire_Down_Distractor.gif"",""img/Fire_Down_Distractor.gif"",""img/Fire_Down_Distractor.gif"",""img/Fire_Down_Distractor.gif"",""img/Fire_Down_Distractor.gif"",""img/Fire_Down_Distractor.gif"",""img/Fire_Down_Distractor.gif"",""img/Fire_Down_Distractor.gif"",""img/Fire_Down_Distractor.gif"",""img/Fire_Down_Distractor.gif"",""img/Fire_Down_Distractor.gif""]","4","targetUp_distractorsDown"
"","","","","","html-keyboard-response","50","151970","0.0-14.0-0.0-0.18","6009c2eda21be3026447d80e","619531dcf66c91622fa1b861","6195956ed32b22cf4649fc9b","null","","null","","","","","main_T1_ITI","","","","",""
"","","","","","visual-search-circle","51","156374","0.0-14.0-0.0-1.18","6009c2eda21be3026447d80e","619531dcf66c91622fa1b861","6195956ed32b22cf4649fc9b","3389.699999988079","","s","false","[[279,0],[52,129],[12,386],[189,578],[448,560],[596,346],[520,97]]","true","7","main_T2_Trial","d","img/Fire_Down_Target.gif","[""img/Fire_Up_Distractor.gif"",""img/Fire_Up_Distractor.gif"",""img/Fire_Up_Distractor.gif"",""img/Fire_Up_Distractor.gif"",""img/Fire_Up_Distractor.gif"",""img/Fire_Up_Distractor.gif"",""img/Fire_Up_Distractor.gif"",""img/Fire_Up_Distractor.gif"",""img/Fire_Up_Distractor.gif"",""img/Fire_Up_Distractor.gif"",""img/Fire_Up_Distractor.gif"",""img/Fire_Up_Distractor.gif""]","7","targetDown_distractorsUp"
"","","","","","html-keyboard-response","52","162663","0.0-14.0-0.0-0.19","6009c2eda21be3026447d80e","619531dcf66c91622fa1b861","6195956ed32b22cf4649fc9b","6288","Wow! You've completed 20 out of 160 trials! </p> <p>  </p><p> Take a quick break, then press any key when you're ready to continue.","d","","","","","main_T1_ITI","","","","",""
"","","","","","visual-search-circle","53","165191","0.0-14.0-0.0-1.19","6009c2eda21be3026447d80e","619531dcf66c91622fa1b861","6195956ed32b22cf4649fc9b","1514.8999999761581","","d","true","[[63,484],[297,599],[532,489],[593,236],[432,31],[172,28],[8,230]]","true","7","main_T2_Trial","d","img/Fire_Up_Target.gif","[""img/Fire_Down_Distractor.gif"",""img/Fire_Down_Distractor.gif"",""img/Fire_Down_Distractor.gif"",""img/Fire_Down_Distractor.gif"",""img/Fire_Down_Distractor.gif"",""img/Fire_Down_Distractor.gif"",""img/Fire_Down_Distractor.gif"",""img/Fire_Down_Distractor.gif"",""img/Fire_Down_Distractor.gif"",""img/Fire_Down_Distractor.gif"",""img/Fire_Down_Distractor.gif"",""img/Fire_Down_Distractor.gif""]","7","targetUp_distractorsDown"
"","","","","","html-keyboard-response","54","165203","0.0-14.0-0.0-0.20","6009c2eda21be3026447d80e","619531dcf66c91622fa1b861","6195956ed32b22cf4649fc9b","null","","null","","","","","main_T1_ITI","","","","",""
"","","","","","visual-search-circle","55","167521","0.0-14.0-0.0-1.20","6009c2eda21be3026447d80e","619531dcf66c91622fa1b861","6195956ed32b22cf4649fc9b","1304.300000011921","","d","true","[[387,586],[564,440],[586,212],[440,35],[212,13],[35,159],[13,387],[159,564]]","true","8","main_T2_Trial","d","img/Fire_Up_Target.gif","[""img/Fire_Down_Distractor.gif"",""img/Fire_Down_Distractor.gif"",""img/Fire_Down_Distractor.gif"",""img/Fire_Down_Distractor.gif"",""img/Fire_Down_Distractor.gif"",""img/Fire_Down_Distractor.gif"",""img/Fire_Down_Distractor.gif"",""img/Fire_Down_Distractor.gif"",""img/Fire_Down_Distractor.gif"",""img/Fire_Down_Distractor.gif"",""img/Fire_Down_Distractor.gif"",""img/Fire_Down_Distractor.gif""]","8","targetUp_distractorsDown"
"","","","","","html-keyboard-response","56","167523","0.0-14.0-0.0-0.21","6009c2eda21be3026447d80e","619531dcf66c91622fa1b861","6195956ed32b22cf4649fc9b","null","","null","","","","","main_T1_ITI","","","","",""
"","","","","","visual-search-circle","57","169977","0.0-14.0-0.0-1.21","6009c2eda21be3026447d80e","619531dcf66c91622fa1b861","6195956ed32b22cf4649fc9b","1436.2000000178814","","s","true","[[6,362],[362,593],[593,237],[237,6]]","false","4","main_T2_Trial","s","img/Fire_Up_Target.gif","[""img/Fire_Down_Distractor.gif"",""img/Fire_Down_Distractor.gif"",""img/Fire_Down_Distractor.gif"",""img/Fire_Down_Distractor.gif"",""img/Fire_Down_Distractor.gif"",""img/Fire_Down_Distractor.gif"",""img/Fire_Down_Distractor.gif"",""img/Fire_Down_Distractor.gif"",""img/Fire_Down_Distractor.gif"",""img/Fire_Down_Distractor.gif"",""img/Fire_Down_Distractor.gif"",""img/Fire_Down_Distractor.gif""]","4","targetUp_distractorsDown"
"","","","","","html-keyboard-response","58","169979","0.0-14.0-0.0-0.22","6009c2eda21be3026447d80e","619531dcf66c91622fa1b861","6195956ed32b22cf4649fc9b","null","","null","","","","","main_T1_ITI","","","","",""
"","","","","","visual-search-circle","59","173347","0.0-14.0-0.0-1.22","6009c2eda21be3026447d80e","619531dcf66c91622fa1b861","6195956ed32b22cf4649fc9b","2355.399999976158","","s","true","[[305,0],[68,108],[6,361],[165,567],[425,572],[591,371],[537,117]]","false","7","main_T2_Trial","s","img/Fire_Down_Target.gif","[""img/Fire_Up_Distractor.gif"",""img/Fire_Up_Distractor.gif"",""img/Fire_Up_Distractor.gif"",""img/Fire_Up_Distractor.gif"",""img/Fire_Up_Distractor.gif"",""img/Fire_Up_Distractor.gif"",""img/Fire_Up_Distractor.gif"",""img/Fire_Up_Distractor.gif"",""img/Fire_Up_Distractor.gif"",""img/Fire_Up_Distractor.gif"",""img/Fire_Up_Distractor.gif"",""img/Fire_Up_Distractor.gif""]","7","targetDown_distractorsUp"
"","","","","","html-keyboard-response","60","173350","0.0-14.0-0.0-0.23","6009c2eda21be3026447d80e","619531dcf66c91622fa1b861","6195956ed32b22cf4649fc9b","null","","null","","","","","main_T1_ITI","","","","",""
"","","","","","visual-search-circle","61","175417","0.0-14.0-0.0-1.23","6009c2eda21be3026447d80e","619531dcf66c91622fa1b861","6195956ed32b22cf4649fc9b","1048.0999999940395","","s","true","[[192,19],[19,407],[407,580],[580,192]]","false","4","main_T2_Trial","s","img/Fire_Up_Target.gif","[""img/Fire_Down_Distractor.gif"",""img/Fire_Down_Distractor.gif"",""img/Fire_Down_Distractor.gif"",""img/Fire_Down_Distractor.gif"",""img/Fire_Down_Distractor.gif"",""img/Fire_Down_Distractor.gif"",""img/Fire_Down_Distractor.gif"",""img/Fire_Down_Distractor.gif"",""img/Fire_Down_Distractor.gif"",""img/Fire_Down_Distractor.gif"",""img/Fire_Down_Distractor.gif"",""img/Fire_Down_Distractor.gif""]","4","targetUp_distractorsDown"
"","","","","","html-keyboard-response","62","175420","0.0-14.0-0.0-0.24","6009c2eda21be3026447d80e","619531dcf66c91622fa1b861","6195956ed32b22cf4649fc9b","null","","null","","","","","main_T1_ITI","","","","",""
"","","","","","visual-search-circle","63","177957","0.0-14.0-0.0-1.24","6009c2eda21be3026447d80e","619531dcf66c91622fa1b861","6195956ed32b22cf4649fc9b","1521.699999988079","","s","false","[[597,258],[258,2],[2,341],[341,597]]","true","4","main_T2_Trial","d","img/Fire_Down_Target.gif","[""img/Fire_Up_Distractor.gif"",""img/Fire_Up_Distractor.gif"",""img/Fire_Up_Distractor.gif"",""img/Fire_Up_Distractor.gif"",""img/Fire_Up_Distractor.gif"",""img/Fire_Up_Distractor.gif"",""img/Fire_Up_Distractor.gif"",""img/Fire_Up_Distractor.gif"",""img/Fire_Up_Distractor.gif"",""img/Fire_Up_Distractor.gif"",""img/Fire_Up_Distractor.gif"",""img/Fire_Up_Distractor.gif""]","4","targetDown_distractorsUp"
"","","","","","html-keyboard-response","64","177958","0.0-14.0-0.0-0.25","6009c2eda21be3026447d80e","619531dcf66c91622fa1b861","6195956ed32b22cf4649fc9b","null","","null","","","","","main_T1_ITI","","","","",""
"","","","","","visual-search-circle","65","180220","0.0-14.0-0.0-1.25","6009c2eda21be3026447d80e","619531dcf66c91622fa1b861","6195956ed32b22cf4649fc9b","1255.9000000059605","","d","true","[[598,331],[476,57],[177,25],[1,268],[123,542],[422,574]]","true","6","main_T2_Trial","d","img/Fire_Up_Target.gif","[""img/Fire_Down_Distractor.gif"",""img/Fire_Down_Distractor.gif"",""img/Fire_Down_Distractor.gif"",""img/Fire_Down_Distractor.gif"",""img/Fire_Down_Distractor.gif"",""img/Fire_Down_Distractor.gif"",""img/Fire_Down_Distractor.gif"",""img/Fire_Down_Distractor.gif"",""img/Fire_Down_Distractor.gif"",""img/Fire_Down_Distractor.gif"",""img/Fire_Down_Distractor.gif"",""img/Fire_Down_Distractor.gif""]","6","targetUp_distractorsDown"
"","","","","","html-keyboard-response","66","180241","0.0-14.0-0.0-0.26","6009c2eda21be3026447d80e","619531dcf66c91622fa1b861","6195956ed32b22cf4649fc9b","null","","null","","","","","main_T1_ITI","","","","",""
"","","","","","visual-search-circle","67","183269","0.0-14.0-0.0-1.26","6009c2eda21be3026447d80e","619531dcf66c91622fa1b861","6195956ed32b22cf4649fc9b","2012.699999988079","","s","false","[[242,5],[2,263],[173,571],[519,504],[562,154]]","true","5","main_T2_Trial","d","img/Fire_Down_Target.gif","[""img/Fire_Up_Distractor.gif"",""img/Fire_Up_Distractor.gif"",""img/Fire_Up_Distractor.gif"",""img/Fire_Up_Distractor.gif"",""img/Fire_Up_Distractor.gif"",""img/Fire_Up_Distractor.gif"",""img/Fire_Up_Distractor.gif"",""img/Fire_Up_Distractor.gif"",""img/Fire_Up_Distractor.gif"",""img/Fire_Up_Distractor.gif"",""img/Fire_Up_Distractor.gif"",""img/Fire_Up_Distractor.gif""]","5","targetDown_distractorsUp"
"","","","","","html-keyboard-response","68","183272","0.0-14.0-0.0-0.27","6009c2eda21be3026447d80e","619531dcf66c91622fa1b861","6195956ed32b22cf4649fc9b","null","","null","","","","","main_T1_ITI","","","","",""
"","","","","","visual-search-circle","69","186495","0.0-14.0-0.0-1.27","6009c2eda21be3026447d80e","619531dcf66c91622fa1b861","6195956ed32b22cf4649fc9b","2212.5","","s","true","[[0,289],[197,581],[536,484],[548,132],[217,11]]","false","5","main_T2_Trial","s","img/Fire_Down_Target.gif","[""img/Fire_Up_Distractor.gif"",""img/Fire_Up_Distractor.gif"",""img/Fire_Up_Distractor.gif"",""img/Fire_Up_Distractor.gif"",""img/Fire_Up_Distractor.gif"",""img/Fire_Up_Distractor.gif"",""img/Fire_Up_Distractor.gif"",""img/Fire_Up_Distractor.gif"",""img/Fire_Up_Distractor.gif"",""img/Fire_Up_Distractor.gif"",""img/Fire_Up_Distractor.gif"",""img/Fire_Up_Distractor.gif""]","5","targetDown_distractorsUp"
"","","","","","html-keyboard-response","70","186499","0.0-14.0-0.0-0.28","6009c2eda21be3026447d80e","619531dcf66c91622fa1b861","6195956ed32b22cf4649fc9b","null","","null","","","","","main_T1_ITI","","","","",""
"","","","","","visual-search-circle","71","190138","0.0-14.0-0.0-1.28","6009c2eda21be3026447d80e","619531dcf66c91622fa1b861","6195956ed32b22cf4649fc9b","2631.5","","s","false","[[4,352],[352,595],[595,247],[247,4]]","true","4","main_T2_Trial","d","img/Fire_Up_Target.gif","[""img/Fire_Down_Distractor.gif"",""img/Fire_Down_Distractor.gif"",""img/Fire_Down_Distractor.gif"",""img/Fire_Down_Distractor.gif"",""img/Fire_Down_Distractor.gif"",""img/Fire_Down_Distractor.gif"",""img/Fire_Down_Distractor.gif"",""img/Fire_Down_Distractor.gif"",""img/Fire_Down_Distractor.gif"",""img/Fire_Down_Distractor.gif"",""img/Fire_Down_Distractor.gif"",""img/Fire_Down_Distractor.gif""]","4","targetUp_distractorsDown"
"","","","","","html-keyboard-response","72","190140","0.0-14.0-0.0-0.29","6009c2eda21be3026447d80e","619531dcf66c91622fa1b861","6195956ed32b22cf4649fc9b","null","","null","","","","","main_T1_ITI","","","","",""
"","","","","","visual-search-circle","73","193184","0.0-14.0-0.0-1.29","6009c2eda21be3026447d80e","619531dcf66c91622fa1b861","6195956ed32b22cf4649fc9b","2027.0999999940395","","s","true","[[2,258],[60,480],[258,597],[480,539],[597,341],[539,119],[341,2],[119,60]]","false","8","main_T2_Trial","s","img/Fire_Down_Target.gif","[""img/Fire_Up_Distractor.gif"",""img/Fire_Up_Distractor.gif"",""img/Fire_Up_Distractor.gif"",""img/Fire_Up_Distractor.gif"",""img/Fire_Up_Distractor.gif"",""img/Fire_Up_Distractor.gif"",""img/Fire_Up_Distractor.gif"",""img/Fire_Up_Distractor.gif"",""img/Fire_Up_Distractor.gif"",""img/Fire_Up_Distractor.gif"",""img/Fire_Up_Distractor.gif"",""img/Fire_Up_Distractor.gif""]","8","targetDown_distractorsUp"
"","","","","","html-keyboard-response","74","193192","0.0-14.0-0.0-0.30","6009c2eda21be3026447d80e","619531dcf66c91622fa1b861","6195956ed32b22cf4649fc9b","null","","null","","","","","main_T1_ITI","","","","",""
"","","","","","visual-search-circle","75","196296","0.0-14.0-0.0-1.30","6009c2eda21be3026447d80e","619531dcf66c91622fa1b861","6195956ed32b22cf4649fc9b","2096.699999988079","","s","false","[[472,545],[545,127],[127,54],[54,472]]","true","4","main_T2_Trial","d","img/Fire_Up_Target.gif","[""img/Fire_Down_Distractor.gif"",""img/Fire_Down_Distractor.gif"",""img/Fire_Down_Distractor.gif"",""img/Fire_Down_Distractor.gif"",""img/Fire_Down_Distractor.gif"",""img/Fire_Down_Distractor.gif"",""img/Fire_Down_Distractor.gif"",""img/Fire_Down_Distractor.gif"",""img/Fire_Down_Distractor.gif"",""img/Fire_Down_Distractor.gif"",""img/Fire_Down_Distractor.gif"",""img/Fire_Down_Distractor.gif""]","4","targetUp_distractorsDown"
"","","","","","html-keyboard-response","76","196304","0.0-14.0-0.0-0.31","6009c2eda21be3026447d80e","619531dcf66c91622fa1b861","6195956ed32b22cf4649fc9b","null","","null","","","","","main_T1_ITI","","","","",""
"","","","","","visual-search-circle","77","199528","0.0-14.0-0.0-1.31","6009c2eda21be3026447d80e","619531dcf66c91622fa1b861","6195956ed32b22cf4649fc9b","2210.100000023842","","s","false","[[407,19],[177,25],[19,192],[25,422],[192,580],[422,574],[580,407],[574,177]]","true","8","main_T2_Trial","d","img/Fire_Down_Target.gif","[""img/Fire_Up_Distractor.gif"",""img/Fire_Up_Distractor.gif"",""img/Fire_Up_Distractor.gif"",""img/Fire_Up_Distractor.gif"",""img/Fire_Up_Distractor.gif"",""img/Fire_Up_Distractor.gif"",""img/Fire_Up_Distractor.gif"",""img/Fire_Up_Distractor.gif"",""img/Fire_Up_Distractor.gif"",""img/Fire_Up_Distractor.gif"",""img/Fire_Up_Distractor.gif"",""img/Fire_Up_Distractor.gif""]","8","targetDown_distractorsUp"
"","","","","","html-keyboard-response","78","199531","0.0-14.0-0.0-0.32","6009c2eda21be3026447d80e","619531dcf66c91622fa1b861","6195956ed32b22cf4649fc9b","null","","null","","","","","main_T1_ITI","","","","",""
"","","","","","visual-search-circle","79","202459","0.0-14.0-0.0-1.32","6009c2eda21be3026447d80e","619531dcf66c91622fa1b861","6195956ed32b22cf4649fc9b","1917.699999988079","","s","false","[[440,35],[180,24],[10,221],[58,477],[288,599],[526,496],[594,244]]","true","7","main_T2_Trial","d","img/Fire_Up_Target.gif","[""img/Fire_Down_Distractor.gif"",""img/Fire_Down_Distractor.gif"",""img/Fire_Down_Distractor.gif"",""img/Fire_Down_Distractor.gif"",""img/Fire_Down_Distractor.gif"",""img/Fire_Down_Distractor.gif"",""img/Fire_Down_Distractor.gif"",""img/Fire_Down_Distractor.gif"",""img/Fire_Down_Distractor.gif"",""img/Fire_Down_Distractor.gif"",""img/Fire_Down_Distractor.gif"",""img/Fire_Down_Distractor.gif""]","7","targetUp_distractorsDown"
"","","","","","html-keyboard-response","80","202467","0.0-14.0-0.0-0.33","6009c2eda21be3026447d80e","619531dcf66c91622fa1b861","6195956ed32b22cf4649fc9b","null","","null","","","","","main_T1_ITI","","","","",""
"","","","","","visual-search-circle","81","204550","0.0-14.0-0.0-1.33","6009c2eda21be3026447d80e","619531dcf66c91622fa1b861","6195956ed32b22cf4649fc9b","1075.800000011921","","d","true","[[346,596],[596,253],[253,3],[3,346]]","true","4","main_T2_Trial","d","img/Fire_Up_Target.gif","[""img/Fire_Down_Distractor.gif"",""img/Fire_Down_Distractor.gif"",""img/Fire_Down_Distractor.gif"",""img/Fire_Down_Distractor.gif"",""img/Fire_Down_Distractor.gif"",""img/Fire_Down_Distractor.gif"",""img/Fire_Down_Distractor.gif"",""img/Fire_Down_Distractor.gif"",""img/Fire_Down_Distractor.gif"",""img/Fire_Down_Distractor.gif"",""img/Fire_Down_Distractor.gif"",""img/Fire_Down_Distractor.gif""]","4","targetUp_distractorsDown"
"","","","","","html-keyboard-response","82","204553","0.0-14.0-0.0-0.34","6009c2eda21be3026447d80e","619531dcf66c91622fa1b861","6195956ed32b22cf4649fc9b","null","","null","","","","","main_T1_ITI","","","","",""
"","","","","","visual-search-circle","83","208320","0.0-14.0-0.0-1.34","6009c2eda21be3026447d80e","619531dcf66c91622fa1b861","6195956ed32b22cf4649fc9b","2752.0999999940395","","s","true","[[392,14],[134,49],[1,273],[92,516],[340,597],[557,453],[580,194]]","false","7","main_T2_Trial","s","img/Fire_Down_Target.gif","[""img/Fire_Up_Distractor.gif"",""img/Fire_Up_Distractor.gif"",""img/Fire_Up_Distractor.gif"",""img/Fire_Up_Distractor.gif"",""img/Fire_Up_Distractor.gif"",""img/Fire_Up_Distractor.gif"",""img/Fire_Up_Distractor.gif"",""img/Fire_Up_Distractor.gif"",""img/Fire_Up_Distractor.gif"",""img/Fire_Up_Distractor.gif"",""img/Fire_Up_Distractor.gif"",""img/Fire_Up_Distractor.gif""]","7","targetDown_distractorsUp"
"","","","","","html-keyboard-response","84","208323","0.0-14.0-0.0-0.35","6009c2eda21be3026447d80e","619531dcf66c91622fa1b861","6195956ed32b22cf4649fc9b","null","","null","","","","","main_T1_ITI","","","","",""
"","","","","","visual-search-circle","85","212333","0.0-14.0-0.0-1.35","6009c2eda21be3026447d80e","619531dcf66c91622fa1b861","6195956ed32b22cf4649fc9b","2986.2999999821186","","d","true","[[480,60],[258,2],[60,119],[2,341],[119,539],[341,597],[539,480],[597,258]]","true","8","main_T2_Trial","d","img/Fire_Down_Target.gif","[""img/Fire_Up_Distractor.gif"",""img/Fire_Up_Distractor.gif"",""img/Fire_Up_Distractor.gif"",""img/Fire_Up_Distractor.gif"",""img/Fire_Up_Distractor.gif"",""img/Fire_Up_Distractor.gif"",""img/Fire_Up_Distractor.gif"",""img/Fire_Up_Distractor.gif"",""img/Fire_Up_Distractor.gif"",""img/Fire_Up_Distractor.gif"",""img/Fire_Up_Distractor.gif"",""img/Fire_Up_Distractor.gif""]","8","targetDown_distractorsUp"
"","","","","","html-keyboard-response","86","212336","0.0-14.0-0.0-0.36","6009c2eda21be3026447d80e","619531dcf66c91622fa1b861","6195956ed32b22cf4649fc9b","null","","null","","","","","main_T1_ITI","","","","",""
"","","","","","visual-search-circle","87","214665","0.0-14.0-0.0-1.36","6009c2eda21be3026447d80e","619531dcf66c91622fa1b861","6195956ed32b22cf4649fc9b","1315","","s","true","[[488,533],[598,331],[533,111],[331,1],[111,66],[1,268],[66,488],[268,598]]","false","8","main_T2_Trial","s","img/Fire_Up_Target.gif","[""img/Fire_Down_Distractor.gif"",""img/Fire_Down_Distractor.gif"",""img/Fire_Down_Distractor.gif"",""img/Fire_Down_Distractor.gif"",""img/Fire_Down_Distractor.gif"",""img/Fire_Down_Distractor.gif"",""img/Fire_Down_Distractor.gif"",""img/Fire_Down_Distractor.gif"",""img/Fire_Down_Distractor.gif"",""img/Fire_Down_Distractor.gif"",""img/Fire_Down_Distractor.gif"",""img/Fire_Down_Distractor.gif""]","8","targetUp_distractorsDown"
"","","","","","html-keyboard-response","88","214667","0.0-14.0-0.0-0.37","6009c2eda21be3026447d80e","619531dcf66c91622fa1b861","6195956ed32b22cf4649fc9b","null","","null","","","","","main_T1_ITI","","","","",""
"","","","","","visual-search-circle","89","217602","0.0-14.0-0.0-1.37","6009c2eda21be3026447d80e","619531dcf66c91622fa1b861","6195956ed32b22cf4649fc9b","1911.2000000178814","","s","true","[[173,571],[402,581],[571,426],[581,197],[426,28],[197,18],[28,173],[18,402]]","false","8","main_T2_Trial","s","img/Fire_Up_Target.gif","[""img/Fire_Down_Distractor.gif"",""img/Fire_Down_Distractor.gif"",""img/Fire_Down_Distractor.gif"",""img/Fire_Down_Distractor.gif"",""img/Fire_Down_Distractor.gif"",""img/Fire_Down_Distractor.gif"",""img/Fire_Down_Distractor.gif"",""img/Fire_Down_Distractor.gif"",""img/Fire_Down_Distractor.gif"",""img/Fire_Down_Distractor.gif"",""img/Fire_Down_Distractor.gif"",""img/Fire_Down_Distractor.gif""]","8","targetUp_distractorsDown"
"","","","","","html-keyboard-response","90","217604","0.0-14.0-0.0-0.38","6009c2eda21be3026447d80e","619531dcf66c91622fa1b861","6195956ed32b22cf4649fc9b","null","","null","","","","","main_T1_ITI","","","","",""
"","","","","","visual-search-circle","91","219726","0.0-14.0-0.0-1.38","6009c2eda21be3026447d80e","619531dcf66c91622fa1b861","6195956ed32b22cf4649fc9b","1110.699999988079","","s","true","[[145,557],[496,526],[576,182],[273,1],[7,232]]","false","5","main_T2_Trial","s","img/Fire_Up_Target.gif","[""img/Fire_Down_Distractor.gif"",""img/Fire_Down_Distractor.gif"",""img/Fire_Down_Distractor.gif"",""img/Fire_Down_Distractor.gif"",""img/Fire_Down_Distractor.gif"",""img/Fire_Down_Distractor.gif"",""img/Fire_Down_Distractor.gif"",""img/Fire_Down_Distractor.gif"",""img/Fire_Down_Distractor.gif"",""img/Fire_Down_Distractor.gif"",""img/Fire_Down_Distractor.gif"",""img/Fire_Down_Distractor.gif""]","5","targetUp_distractorsDown"
"","","","","","html-keyboard-response","92","221621","0.0-14.0-0.0-0.39","6009c2eda21be3026447d80e","619531dcf66c91622fa1b861","6195956ed32b22cf4649fc9b","1894","Wow! You've completed 40 out of 160 trials! </p> <p>  </p><p> Take a quick break, then press any key when you're ready to continue."," ","","","","","main_T1_ITI","","","","",""
"","","","","","visual-search-circle","93","223647","0.0-14.0-0.0-1.39","6009c2eda21be3026447d80e","619531dcf66c91622fa1b861","6195956ed32b22cf4649fc9b","1016.5","","d","true","[[508,84],[84,91],[91,515],[515,508]]","true","4","main_T2_Trial","d","img/Fire_Up_Target.gif","[""img/Fire_Down_Distractor.gif"",""img/Fire_Down_Distractor.gif"",""img/Fire_Down_Distractor.gif"",""img/Fire_Down_Distractor.gif"",""img/Fire_Down_Distractor.gif"",""img/Fire_Down_Distractor.gif"",""img/Fire_Down_Distractor.gif"",""img/Fire_Down_Distractor.gif"",""img/Fire_Down_Distractor.gif"",""img/Fire_Down_Distractor.gif"",""img/Fire_Down_Distractor.gif"",""img/Fire_Down_Distractor.gif""]","4","targetUp_distractorsDown"
"","","","","","html-keyboard-response","94","223649","0.0-14.0-0.0-0.40","6009c2eda21be3026447d80e","619531dcf66c91622fa1b861","6195956ed32b22cf4649fc9b","null","","null","","","","","main_T1_ITI","","","","",""
"","","","","","visual-search-circle","95","225969","0.0-14.0-0.0-1.40","6009c2eda21be3026447d80e","619531dcf66c91622fa1b861","6195956ed32b22cf4649fc9b","1296.5999999940395","","s","true","[[63,115],[2,336],[115,536],[336,597],[536,484],[597,263],[484,63],[263,2]]","false","8","main_T2_Trial","s","img/Fire_Down_Target.gif","[""img/Fire_Up_Distractor.gif"",""img/Fire_Up_Distractor.gif"",""img/Fire_Up_Distractor.gif"",""img/Fire_Up_Distractor.gif"",""img/Fire_Up_Distractor.gif"",""img/Fire_Up_Distractor.gif"",""img/Fire_Up_Distractor.gif"",""img/Fire_Up_Distractor.gif"",""img/Fire_Up_Distractor.gif"",""img/Fire_Up_Distractor.gif"",""img/Fire_Up_Distractor.gif"",""img/Fire_Up_Distractor.gif""]","8","targetDown_distractorsUp"
"","","","","","html-keyboard-response","96","225970","0.0-14.0-0.0-0.41","6009c2eda21be3026447d80e","619531dcf66c91622fa1b861","6195956ed32b22cf4649fc9b","null","","null","","","","","main_T1_ITI","","","","",""
"","","","","","visual-search-circle","97","228549","0.0-14.0-0.0-1.41","6009c2eda21be3026447d80e","619531dcf66c91622fa1b861","6195956ed32b22cf4649fc9b","1557.800000011921","","s","true","[[593,237],[392,14],[99,77],[6,362],[207,585],[500,522]]","false","6","main_T2_Trial","s","img/Fire_Down_Target.gif","[""img/Fire_Up_Distractor.gif"",""img/Fire_Up_Distractor.gif"",""img/Fire_Up_Distractor.gif"",""img/Fire_Up_Distractor.gif"",""img/Fire_Up_Distractor.gif"",""img/Fire_Up_Distractor.gif"",""img/Fire_Up_Distractor.gif"",""img/Fire_Up_Distractor.gif"",""img/Fire_Up_Distractor.gif"",""img/Fire_Up_Distractor.gif"",""img/Fire_Up_Distractor.gif"",""img/Fire_Up_Distractor.gif""]","6","targetDown_distractorsUp"
"","","","","","html-keyboard-response","98","228551","0.0-14.0-0.0-0.42","6009c2eda21be3026447d80e","619531dcf66c91622fa1b861","6195956ed32b22cf4649fc9b","null","","null","","","","","main_T1_ITI","","","","",""
"","","","","","visual-search-circle","99","231004","0.0-14.0-0.0-1.42","6009c2eda21be3026447d80e","619531dcf66c91622fa1b861","6195956ed32b22cf4649fc9b","1439.699999988079","","s","true","[[417,576],[588,380],[543,124],[314,0],[74,102],[4,352],[157,563]]","false","7","main_T2_Trial","s","img/Fire_Up_Target.gif","[""img/Fire_Down_Distractor.gif"",""img/Fire_Down_Distractor.gif"",""img/Fire_Down_Distractor.gif"",""img/Fire_Down_Distractor.gif"",""img/Fire_Down_Distractor.gif"",""img/Fire_Down_Distractor.gif"",""img/Fire_Down_Distractor.gif"",""img/Fire_Down_Distractor.gif"",""img/Fire_Down_Distractor.gif"",""img/Fire_Down_Distractor.gif"",""img/Fire_Down_Distractor.gif"",""img/Fire_Down_Distractor.gif""]","7","targetUp_distractorsDown"
"","","","","","html-keyboard-response","100","231006","0.0-14.0-0.0-0.43","6009c2eda21be3026447d80e","619531dcf66c91622fa1b861","6195956ed32b22cf4649fc9b","null","","null","","","","","main_T1_ITI","","","","",""
"","","","","","visual-search-circle","101","234164","0.0-14.0-0.0-1.43","6009c2eda21be3026447d80e","619531dcf66c91622fa1b861","6195956ed32b22cf4649fc9b","2138.300000011921","","d","true","[[150,40],[3,255],[80,504],[322,599],[547,468],[586,211],[409,20]]","true","7","main_T2_Trial","d","img/Fire_Down_Target.gif","[""img/Fire_Up_Distractor.gif"",""img/Fire_Up_Distractor.gif"",""img/Fire_Up_Distractor.gif"",""img/Fire_Up_Distractor.gif"",""img/Fire_Up_Distractor.gif"",""img/Fire_Up_Distractor.gif"",""img/Fire_Up_Distractor.gif"",""img/Fire_Up_Distractor.gif"",""img/Fire_Up_Distractor.gif"",""img/Fire_Up_Distractor.gif"",""img/Fire_Up_Distractor.gif"",""img/Fire_Up_Distractor.gif""]","7","targetDown_distractorsUp"
"","","","","","html-keyboard-response","102","234176","0.0-14.0-0.0-0.44","6009c2eda21be3026447d80e","619531dcf66c91622fa1b861","6195956ed32b22cf4649fc9b","null","","null","","","","","main_T1_ITI","","","","",""
"","","","","","visual-search-circle","103","237010","0.0-14.0-0.0-1.44","6009c2eda21be3026447d80e","619531dcf66c91622fa1b861","6195956ed32b22cf4649fc9b","1826.6000000238419","","s","true","[[331,1],[25,177],[99,522],[450,559],[593,237]]","false","5","main_T2_Trial","s","img/Fire_Down_Target.gif","[""img/Fire_Up_Distractor.gif"",""img/Fire_Up_Distractor.gif"",""img/Fire_Up_Distractor.gif"",""img/Fire_Up_Distractor.gif"",""img/Fire_Up_Distractor.gif"",""img/Fire_Up_Distractor.gif"",""img/Fire_Up_Distractor.gif"",""img/Fire_Up_Distractor.gif"",""img/Fire_Up_Distractor.gif"",""img/Fire_Up_Distractor.gif"",""img/Fire_Up_Distractor.gif"",""img/Fire_Up_Distractor.gif""]","5","targetDown_distractorsUp"
"","","","","","html-keyboard-response","104","237019","0.0-14.0-0.0-0.45","6009c2eda21be3026447d80e","619531dcf66c91622fa1b861","6195956ed32b22cf4649fc9b","null","","null","","","","","main_T1_ITI","","","","",""
"","","","","","visual-search-circle","105","239584","0.0-14.0-0.0-1.45","6009c2eda21be3026447d80e","619531dcf66c91622fa1b861","6195956ed32b22cf4649fc9b","1553","","d","true","[[63,484],[263,597],[484,536],[597,336],[536,115],[336,2],[115,63],[2,263]]","true","8","main_T2_Trial","d","img/Fire_Up_Target.gif","[""img/Fire_Down_Distractor.gif"",""img/Fire_Down_Distractor.gif"",""img/Fire_Down_Distractor.gif"",""img/Fire_Down_Distractor.gif"",""img/Fire_Down_Distractor.gif"",""img/Fire_Down_Distractor.gif"",""img/Fire_Down_Distractor.gif"",""img/Fire_Down_Distractor.gif"",""img/Fire_Down_Distractor.gif"",""img/Fire_Down_Distractor.gif"",""img/Fire_Down_Distractor.gif"",""img/Fire_Down_Distractor.gif""]","8","targetUp_distractorsDown"
"","","","","","html-keyboard-response","106","239586","0.0-14.0-0.0-0.46","6009c2eda21be3026447d80e","619531dcf66c91622fa1b861","6195956ed32b22cf4649fc9b","null","","null","","","","","main_T1_ITI","","","","",""
"","","","","","visual-search-circle","107","241782","0.0-14.0-0.0-1.46","6009c2eda21be3026447d80e","619531dcf66c91622fa1b861","6195956ed32b22cf4649fc9b","1187.300000011921","","d","true","[[91,84],[84,508],[508,515],[515,91]]","true","4","main_T2_Trial","d","img/Fire_Down_Target.gif","[""img/Fire_Up_Distractor.gif"",""img/Fire_Up_Distractor.gif"",""img/Fire_Up_Distractor.gif"",""img/Fire_Up_Distractor.gif"",""img/Fire_Up_Distractor.gif"",""img/Fire_Up_Distractor.gif"",""img/Fire_Up_Distractor.gif"",""img/Fire_Up_Distractor.gif"",""img/Fire_Up_Distractor.gif"",""img/Fire_Up_Distractor.gif"",""img/Fire_Up_Distractor.gif"",""img/Fire_Up_Distractor.gif""]","4","targetDown_distractorsUp"
"","","","","","html-keyboard-response","108","241790","0.0-14.0-0.0-0.47","6009c2eda21be3026447d80e","619531dcf66c91622fa1b861","6195956ed32b22cf4649fc9b","null","","null","","","","","main_T1_ITI","","","","",""
"","","","","","visual-search-circle","109","243755","0.0-14.0-0.0-1.47","6009c2eda21be3026447d80e","619531dcf66c91622fa1b861","6195956ed32b22cf4649fc9b","954.8000000119209","","s","true","[[539,480],[576,182],[336,2],[60,119],[23,417],[263,597]]","false","6","main_T2_Trial","s","img/Fire_Up_Target.gif","[""img/Fire_Down_Distractor.gif"",""img/Fire_Down_Distractor.gif"",""img/Fire_Down_Distractor.gif"",""img/Fire_Down_Distractor.gif"",""img/Fire_Down_Distractor.gif"",""img/Fire_Down_Distractor.gif"",""img/Fire_Down_Distractor.gif"",""img/Fire_Down_Distractor.gif"",""img/Fire_Down_Distractor.gif"",""img/Fire_Down_Distractor.gif"",""img/Fire_Down_Distractor.gif"",""img/Fire_Down_Distractor.gif""]","6","targetUp_distractorsDown"
"","","","","","html-keyboard-response","110","243756","0.0-14.0-0.0-0.48","6009c2eda21be3026447d80e","619531dcf66c91622fa1b861","6195956ed32b22cf4649fc9b","null","","null","","","","","main_T1_ITI","","","","",""
"","","","","","visual-search-circle","111","245870","0.0-14.0-0.0-1.48","6009c2eda21be3026447d80e","619531dcf66c91622fa1b861","6195956ed32b22cf4649fc9b","1100.9000000059605","","s","true","[[119,539],[374,590],[573,422],[566,162],[358,5],[106,70],[0,308]]","false","7","main_T2_Trial","s","img/Fire_Down_Target.gif","[""img/Fire_Up_Distractor.gif"",""img/Fire_Up_Distractor.gif"",""img/Fire_Up_Distractor.gif"",""img/Fire_Up_Distractor.gif"",""img/Fire_Up_Distractor.gif"",""img/Fire_Up_Distractor.gif"",""img/Fire_Up_Distractor.gif"",""img/Fire_Up_Distractor.gif"",""img/Fire_Up_Distractor.gif"",""img/Fire_Up_Distractor.gif"",""img/Fire_Up_Distractor.gif"",""img/Fire_Up_Distractor.gif""]","7","targetDown_distractorsUp"
"","","","","","html-keyboard-response","112","245873","0.0-14.0-0.0-0.49","6009c2eda21be3026447d80e","619531dcf66c91622fa1b861","6195956ed32b22cf4649fc9b","null","","null","","","","","main_T1_ITI","","","","",""
"","","","","","visual-search-circle","113","248232","0.0-14.0-0.0-1.49","6009c2eda21be3026447d80e","619531dcf66c91622fa1b861","6195956ed32b22cf4649fc9b","1349.7000000178814","","d","true","[[526,496],[583,202],[357,5],[73,103],[16,397],[242,594]]","true","6","main_T2_Trial","d","img/Fire_Down_Target.gif","[""img/Fire_Up_Distractor.gif"",""img/Fire_Up_Distractor.gif"",""img/Fire_Up_Distractor.gif"",""img/Fire_Up_Distractor.gif"",""img/Fire_Up_Distractor.gif"",""img/Fire_Up_Distractor.gif"",""img/Fire_Up_Distractor.gif"",""img/Fire_Up_Distractor.gif"",""img/Fire_Up_Distractor.gif"",""img/Fire_Up_Distractor.gif"",""img/Fire_Up_Distractor.gif"",""img/Fire_Up_Distractor.gif""]","6","targetDown_distractorsUp"
"","","","","","html-keyboard-response","114","248239","0.0-14.0-0.0-0.50","6009c2eda21be3026447d80e","619531dcf66c91622fa1b861","6195956ed32b22cf4649fc9b","null","","null","","","","","main_T1_ITI","","","","",""
"","","","","","visual-search-circle","115","250484","0.0-14.0-0.0-1.50","6009c2eda21be3026447d80e","619531dcf66c91622fa1b861","6195956ed32b22cf4649fc9b","1237.2000000178814","","s","true","[[372,591],[599,320],[412,21],[70,107],[45,458]]","false","5","main_T2_Trial","s","img/Fire_Up_Target.gif","[""img/Fire_Down_Distractor.gif"",""img/Fire_Down_Distractor.gif"",""img/Fire_Down_Distractor.gif"",""img/Fire_Down_Distractor.gif"",""img/Fire_Down_Distractor.gif"",""img/Fire_Down_Distractor.gif"",""img/Fire_Down_Distractor.gif"",""img/Fire_Down_Distractor.gif"",""img/Fire_Down_Distractor.gif"",""img/Fire_Down_Distractor.gif"",""img/Fire_Down_Distractor.gif"",""img/Fire_Down_Distractor.gif""]","5","targetUp_distractorsDown"
"","","","","","html-keyboard-response","116","250486","0.0-14.0-0.0-0.51","6009c2eda21be3026447d80e","619531dcf66c91622fa1b861","6195956ed32b22cf4649fc9b","null","","null","","","","","main_T1_ITI","","","","",""
"","","","","","visual-search-circle","117","252719","0.0-14.0-0.0-1.51","6009c2eda21be3026447d80e","619531dcf66c91622fa1b861","6195956ed32b22cf4649fc9b","1219.3999999761581","","s","true","[[564,440],[515,91],[168,30],[2,341],[247,595]]","false","5","main_T2_Trial","s","img/Fire_Up_Target.gif","[""img/Fire_Down_Distractor.gif"",""img/Fire_Down_Distractor.gif"",""img/Fire_Down_Distractor.gif"",""img/Fire_Down_Distractor.gif"",""img/Fire_Down_Distractor.gif"",""img/Fire_Down_Distractor.gif"",""img/Fire_Down_Distractor.gif"",""img/Fire_Down_Distractor.gif"",""img/Fire_Down_Distractor.gif"",""img/Fire_Down_Distractor.gif"",""img/Fire_Down_Distractor.gif"",""img/Fire_Down_Distractor.gif""]","5","targetUp_distractorsDown"
"","","","","","html-keyboard-response","118","252721","0.0-14.0-0.0-0.52","6009c2eda21be3026447d80e","619531dcf66c91622fa1b861","6195956ed32b22cf4649fc9b","null","","null","","","","","main_T1_ITI","","","","",""
"","","","","","visual-search-circle","119","255224","0.0-14.0-0.0-1.52","6009c2eda21be3026447d80e","619531dcf66c91622fa1b861","6195956ed32b22cf4649fc9b","1479.6000000238419","","s","true","[[567,163],[360,6],[107,69],[0,306],[118,538],[373,590],[573,424]]","false","7","main_T2_Trial","s","img/Fire_Down_Target.gif","[""img/Fire_Up_Distractor.gif"",""img/Fire_Up_Distractor.gif"",""img/Fire_Up_Distractor.gif"",""img/Fire_Up_Distractor.gif"",""img/Fire_Up_Distractor.gif"",""img/Fire_Up_Distractor.gif"",""img/Fire_Up_Distractor.gif"",""img/Fire_Up_Distractor.gif"",""img/Fire_Up_Distractor.gif"",""img/Fire_Up_Distractor.gif"",""img/Fire_Up_Distractor.gif"",""img/Fire_Up_Distractor.gif""]","7","targetDown_distractorsUp"
"","","","","","html-keyboard-response","120","255226","0.0-14.0-0.0-0.53","6009c2eda21be3026447d80e","619531dcf66c91622fa1b861","6195956ed32b22cf4649fc9b","null","","null","","","","","main_T1_ITI","","","","",""
"","","","","","visual-search-circle","121","257580","0.0-14.0-0.0-1.53","6009c2eda21be3026447d80e","619531dcf66c91622fa1b861","6195956ed32b22cf4649fc9b","1336.2000000178814","","d","true","[[1,331],[138,552],[396,583],[582,401],[555,142],[335,2],[89,86]]","true","7","main_T2_Trial","d","img/Fire_Up_Target.gif","[""img/Fire_Down_Distractor.gif"",""img/Fire_Down_Distractor.gif"",""img/Fire_Down_Distractor.gif"",""img/Fire_Down_Distractor.gif"",""img/Fire_Down_Distractor.gif"",""img/Fire_Down_Distractor.gif"",""img/Fire_Down_Distractor.gif"",""img/Fire_Down_Distractor.gif"",""img/Fire_Down_Distractor.gif"",""img/Fire_Down_Distractor.gif"",""img/Fire_Down_Distractor.gif"",""img/Fire_Down_Distractor.gif""]","7","targetUp_distractorsDown"
"","","","","","html-keyboard-response","122","257595","0.0-14.0-0.0-0.54","6009c2eda21be3026447d80e","619531dcf66c91622fa1b861","6195956ed32b22cf4649fc9b","null","","null","","","","","main_T1_ITI","","","","",""
"","","","","","visual-search-circle","123","259756","0.0-14.0-0.0-1.54","6009c2eda21be3026447d80e","619531dcf66c91622fa1b861","6195956ed32b22cf4649fc9b","1144.199999988079","","s","true","[[422,25],[77,99],[40,450],[362,593],[598,331]]","false","5","main_T2_Trial","s","img/Fire_Down_Target.gif","[""img/Fire_Up_Distractor.gif"",""img/Fire_Up_Distractor.gif"",""img/Fire_Up_Distractor.gif"",""img/Fire_Up_Distractor.gif"",""img/Fire_Up_Distractor.gif"",""img/Fire_Up_Distractor.gif"",""img/Fire_Up_Distractor.gif"",""img/Fire_Up_Distractor.gif"",""img/Fire_Up_Distractor.gif"",""img/Fire_Up_Distractor.gif"",""img/Fire_Up_Distractor.gif"",""img/Fire_Up_Distractor.gif""]","5","targetDown_distractorsUp"
"","","","","","html-keyboard-response","124","259758","0.0-14.0-0.0-0.55","6009c2eda21be3026447d80e","619531dcf66c91622fa1b861","6195956ed32b22cf4649fc9b","null","","null","","","","","main_T1_ITI","","","","",""
"","","","","","visual-search-circle","125","261815","0.0-14.0-0.0-1.55","6009c2eda21be3026447d80e","619531dcf66c91622fa1b861","6195956ed32b22cf4649fc9b","1050.5999999940395","","d","true","[[18,197],[115,536],[467,548],[588,217],[310,0]]","true","5","main_T2_Trial","d","img/Fire_Up_Target.gif","[""img/Fire_Down_Distractor.gif"",""img/Fire_Down_Distractor.gif"",""img/Fire_Down_Distractor.gif"",""img/Fire_Down_Distractor.gif"",""img/Fire_Down_Distractor.gif"",""img/Fire_Down_Distractor.gif"",""img/Fire_Down_Distractor.gif"",""img/Fire_Down_Distractor.gif"",""img/Fire_Down_Distractor.gif"",""img/Fire_Down_Distractor.gif"",""img/Fire_Down_Distractor.gif"",""img/Fire_Down_Distractor.gif""]","5","targetUp_distractorsDown"
"","","","","","html-keyboard-response","126","261817","0.0-14.0-0.0-0.56","6009c2eda21be3026447d80e","619531dcf66c91622fa1b861","6195956ed32b22cf4649fc9b","null","","null","","","","","main_T1_ITI","","","","",""
"","","","","","visual-search-circle","127","266232","0.0-14.0-0.0-1.56","6009c2eda21be3026447d80e","619531dcf66c91622fa1b861","6195956ed32b22cf4649fc9b","3399.800000011921","","s","false","[[574,177],[375,9],[120,59],[0,291],[106,528],[357,594],[566,438]]","true","7","main_T2_Trial","d","img/Fire_Up_Target.gif","[""img/Fire_Down_Distractor.gif"",""img/Fire_Down_Distractor.gif"",""img/Fire_Down_Distractor.gif"",""img/Fire_Down_Distractor.gif"",""img/Fire_Down_Distractor.gif"",""img/Fire_Down_Distractor.gif"",""img/Fire_Down_Distractor.gif"",""img/Fire_Down_Distractor.gif"",""img/Fire_Down_Distractor.gif"",""img/Fire_Down_Distractor.gif"",""img/Fire_Down_Distractor.gif"",""img/Fire_Down_Distractor.gif""]","7","targetUp_distractorsDown"
"","","","","","html-keyboard-response","128","266236","0.0-14.0-0.0-0.57","6009c2eda21be3026447d80e","619531dcf66c91622fa1b861","6195956ed32b22cf4649fc9b","null","","null","","","","","main_T1_ITI","","","","",""
"","","","","","visual-search-circle","129","269975","0.0-14.0-0.0-1.57","6009c2eda21be3026447d80e","619531dcf66c91622fa1b861","6195956ed32b22cf4649fc9b","2720.199999988079","","s","true","[[111,533],[407,580],[596,346],[488,66],[192,19],[3,253]]","false","6","main_T2_Trial","s","img/Fire_Down_Target.gif","[""img/Fire_Up_Distractor.gif"",""img/Fire_Up_Distractor.gif"",""img/Fire_Up_Distractor.gif"",""img/Fire_Up_Distractor.gif"",""img/Fire_Up_Distractor.gif"",""img/Fire_Up_Distractor.gif"",""img/Fire_Up_Distractor.gif"",""img/Fire_Up_Distractor.gif"",""img/Fire_Up_Distractor.gif"",""img/Fire_Up_Distractor.gif"",""img/Fire_Up_Distractor.gif"",""img/Fire_Up_Distractor.gif""]","6","targetDown_distractorsUp"
"","","","","","html-keyboard-response","130","269977","0.0-14.0-0.0-0.58","6009c2eda21be3026447d80e","619531dcf66c91622fa1b861","6195956ed32b22cf4649fc9b","null","","null","","","","","main_T1_ITI","","","","",""
"","","","","","visual-search-circle","131","274182","0.0-14.0-0.0-1.58","6009c2eda21be3026447d80e","619531dcf66c91622fa1b861","6195956ed32b22cf4649fc9b","3193.0999999940395","","d","true","[[0,294],[145,557],[445,562],[599,305],[454,42],[154,37]]","true","6","main_T2_Trial","d","img/Fire_Up_Target.gif","[""img/Fire_Down_Distractor.gif"",""img/Fire_Down_Distractor.gif"",""img/Fire_Down_Distractor.gif"",""img/Fire_Down_Distractor.gif"",""img/Fire_Down_Distractor.gif"",""img/Fire_Down_Distractor.gif"",""img/Fire_Down_Distractor.gif"",""img/Fire_Down_Distractor.gif"",""img/Fire_Down_Distractor.gif"",""img/Fire_Down_Distractor.gif"",""img/Fire_Down_Distractor.gif"",""img/Fire_Down_Distractor.gif""]","6","targetUp_distractorsDown"
"","","","","","html-keyboard-response","132","275872","0.0-14.0-0.0-0.59","6009c2eda21be3026447d80e","619531dcf66c91622fa1b861","6195956ed32b22cf4649fc9b","1689.199999988079","Wow! You've completed 60 out of 160 trials! </p> <p>  </p><p> Take a quick break, then press any key when you're ready to continue."," ","","","","","main_T1_ITI","","","","",""
"","","","","","visual-search-circle","133","277863","0.0-14.0-0.0-1.59","6009c2eda21be3026447d80e","619531dcf66c91622fa1b861","6195956ed32b22cf4649fc9b","976.2000000178814","","d","true","[[407,580],[574,422],[580,192],[422,25],[192,19],[25,177],[19,407],[177,574]]","true","8","main_T2_Trial","d","img/Fire_Up_Target.gif","[""img/Fire_Down_Distractor.gif"",""img/Fire_Down_Distractor.gif"",""img/Fire_Down_Distractor.gif"",""img/Fire_Down_Distractor.gif"",""img/Fire_Down_Distractor.gif"",""img/Fire_Down_Distractor.gif"",""img/Fire_Down_Distractor.gif"",""img/Fire_Down_Distractor.gif"",""img/Fire_Down_Distractor.gif"",""img/Fire_Down_Distractor.gif"",""img/Fire_Down_Distractor.gif"",""img/Fire_Down_Distractor.gif""]","8","targetUp_distractorsDown"
"","","","","","html-keyboard-response","134","277865","0.0-14.0-0.0-0.60","6009c2eda21be3026447d80e","619531dcf66c91622fa1b861","6195956ed32b22cf4649fc9b","null","","null","","","","","main_T1_ITI","","","","",""
"","","","","","visual-search-circle","135","279950","0.0-14.0-0.0-1.60","6009c2eda21be3026447d80e","619531dcf66c91622fa1b861","6195956ed32b22cf4649fc9b","1081.4000000059605","","s","true","[[412,21],[70,107],[45,458],[372,591],[599,320]]","false","5","main_T2_Trial","s","img/Fire_Up_Target.gif","[""img/Fire_Down_Distractor.gif"",""img/Fire_Down_Distractor.gif"",""img/Fire_Down_Distractor.gif"",""img/Fire_Down_Distractor.gif"",""img/Fire_Down_Distractor.gif"",""img/Fire_Down_Distractor.gif"",""img/Fire_Down_Distractor.gif"",""img/Fire_Down_Distractor.gif"",""img/Fire_Down_Distractor.gif"",""img/Fire_Down_Distractor.gif"",""img/Fire_Down_Distractor.gif"",""img/Fire_Down_Distractor.gif""]","5","targetUp_distractorsDown"
"","","","","","html-keyboard-response","136","279953","0.0-14.0-0.0-0.61","6009c2eda21be3026447d80e","619531dcf66c91622fa1b861","6195956ed32b22cf4649fc9b","null","","null","","","","","main_T1_ITI","","","","",""
"","","","","","visual-search-circle","137","282299","0.0-14.0-0.0-1.61","6009c2eda21be3026447d80e","619531dcf66c91622fa1b861","6195956ed32b22cf4649fc9b","1323","","s","true","[[445,562],[588,382],[562,154],[382,11],[154,37],[11,217],[37,445],[217,588]]","false","8","main_T2_Trial","s","img/Fire_Up_Target.gif","[""img/Fire_Down_Distractor.gif"",""img/Fire_Down_Distractor.gif"",""img/Fire_Down_Distractor.gif"",""img/Fire_Down_Distractor.gif"",""img/Fire_Down_Distractor.gif"",""img/Fire_Down_Distractor.gif"",""img/Fire_Down_Distractor.gif"",""img/Fire_Down_Distractor.gif"",""img/Fire_Down_Distractor.gif"",""img/Fire_Down_Distractor.gif"",""img/Fire_Down_Distractor.gif"",""img/Fire_Down_Distractor.gif""]","8","targetUp_distractorsDown"
"","","","","","html-keyboard-response","138","282302","0.0-14.0-0.0-0.62","6009c2eda21be3026447d80e","619531dcf66c91622fa1b861","6195956ed32b22cf4649fc9b","null","","null","","","","","main_T1_ITI","","","","",""
"","","","","","visual-search-circle","139","284488","0.0-14.0-0.0-1.62","6009c2eda21be3026447d80e","619531dcf66c91622fa1b861","6195956ed32b22cf4649fc9b","1165.5999999940395","","s","true","[[382,11],[11,217],[217,588],[588,382]]","false","4","main_T2_Trial","s","img/Fire_Up_Target.gif","[""img/Fire_Down_Distractor.gif"",""img/Fire_Down_Distractor.gif"",""img/Fire_Down_Distractor.gif"",""img/Fire_Down_Distractor.gif"",""img/Fire_Down_Distractor.gif"",""img/Fire_Down_Distractor.gif"",""img/Fire_Down_Distractor.gif"",""img/Fire_Down_Distractor.gif"",""img/Fire_Down_Distractor.gif"",""img/Fire_Down_Distractor.gif"",""img/Fire_Down_Distractor.gif"",""img/Fire_Down_Distractor.gif""]","4","targetUp_distractorsDown"
"","","","","","html-keyboard-response","140","284490","0.0-14.0-0.0-0.63","6009c2eda21be3026447d80e","619531dcf66c91622fa1b861","6195956ed32b22cf4649fc9b","null","","null","","","","","main_T1_ITI","","","","",""
"","","","","","visual-search-circle","141","286427","0.0-14.0-0.0-1.63","6009c2eda21be3026447d80e","619531dcf66c91622fa1b861","6195956ed32b22cf4649fc9b","924.4000000059605","","s","true","[[569,168],[258,2],[4,247],[159,564],[508,515]]","false","5","main_T2_Trial","s","img/Fire_Down_Target.gif","[""img/Fire_Up_Distractor.gif"",""img/Fire_Up_Distractor.gif"",""img/Fire_Up_Distractor.gif"",""img/Fire_Up_Distractor.gif"",""img/Fire_Up_Distractor.gif"",""img/Fire_Up_Distractor.gif"",""img/Fire_Up_Distractor.gif"",""img/Fire_Up_Distractor.gif"",""img/Fire_Up_Distractor.gif"",""img/Fire_Up_Distractor.gif"",""img/Fire_Up_Distractor.gif"",""img/Fire_Up_Distractor.gif""]","5","targetDown_distractorsUp"
"","","","","","html-keyboard-response","142","286429","0.0-14.0-0.0-0.64","6009c2eda21be3026447d80e","619531dcf66c91622fa1b861","6195956ed32b22cf4649fc9b","null","","null","","","","","main_T1_ITI","","","","",""
"","","","","","visual-search-circle","143","288444","0.0-14.0-0.0-1.64","6009c2eda21be3026447d80e","619531dcf66c91622fa1b861","6195956ed32b22cf4649fc9b","1002.2999999821186","","s","true","[[42,454],[367,592],[598,326],[417,23],[73,103]]","false","5","main_T2_Trial","s","img/Fire_Down_Target.gif","[""img/Fire_Up_Distractor.gif"",""img/Fire_Up_Distractor.gif"",""img/Fire_Up_Distractor.gif"",""img/Fire_Up_Distractor.gif"",""img/Fire_Up_Distractor.gif"",""img/Fire_Up_Distractor.gif"",""img/Fire_Up_Distractor.gif"",""img/Fire_Up_Distractor.gif"",""img/Fire_Up_Distractor.gif"",""img/Fire_Up_Distractor.gif"",""img/Fire_Up_Distractor.gif"",""img/Fire_Up_Distractor.gif""]","5","targetDown_distractorsUp"
"","","","","","html-keyboard-response","144","288454","0.0-14.0-0.0-0.65","6009c2eda21be3026447d80e","619531dcf66c91622fa1b861","6195956ed32b22cf4649fc9b","null","","null","","","","","main_T1_ITI","","","","",""
"","","","","","visual-search-circle","145","290398","0.0-14.0-0.0-1.65","6009c2eda21be3026447d80e","619531dcf66c91622fa1b861","6195956ed32b22cf4649fc9b","931.3000000119209","","s","true","[[0,294],[294,599],[599,305],[305,0]]","false","4","main_T2_Trial","s","img/Fire_Down_Target.gif","[""img/Fire_Up_Distractor.gif"",""img/Fire_Up_Distractor.gif"",""img/Fire_Up_Distractor.gif"",""img/Fire_Up_Distractor.gif"",""img/Fire_Up_Distractor.gif"",""img/Fire_Up_Distractor.gif"",""img/Fire_Up_Distractor.gif"",""img/Fire_Up_Distractor.gif"",""img/Fire_Up_Distractor.gif"",""img/Fire_Up_Distractor.gif"",""img/Fire_Up_Distractor.gif"",""img/Fire_Up_Distractor.gif""]","4","targetDown_distractorsUp"
"","","","","","html-keyboard-response","146","290400","0.0-14.0-0.0-0.66","6009c2eda21be3026447d80e","619531dcf66c91622fa1b861","6195956ed32b22cf4649fc9b","null","","null","","","","","main_T1_ITI","","","","",""
"","","","","","visual-search-circle","147","292594","0.0-14.0-0.0-1.66","6009c2eda21be3026447d80e","619531dcf66c91622fa1b861","6195956ed32b22cf4649fc9b","1181.4000000059605","","s","false","[[182,23],[2,263],[119,539],[417,576],[597,336],[480,60]]","true","6","main_T2_Trial","d","img/Fire_Down_Target.gif","[""img/Fire_Up_Distractor.gif"",""img/Fire_Up_Distractor.gif"",""img/Fire_Up_Distractor.gif"",""img/Fire_Up_Distractor.gif"",""img/Fire_Up_Distractor.gif"",""img/Fire_Up_Distractor.gif"",""img/Fire_Up_Distractor.gif"",""img/Fire_Up_Distractor.gif"",""img/Fire_Up_Distractor.gif"",""img/Fire_Up_Distractor.gif"",""img/Fire_Up_Distractor.gif"",""img/Fire_Up_Distractor.gif""]","6","targetDown_distractorsUp"
"","","","","","html-keyboard-response","148","292598","0.0-14.0-0.0-0.67","6009c2eda21be3026447d80e","619531dcf66c91622fa1b861","6195956ed32b22cf4649fc9b","null","","null","","","","","main_T1_ITI","","","","",""
"","","","","","visual-search-circle","149","295480","0.0-14.0-0.0-1.67","6009c2eda21be3026447d80e","619531dcf66c91622fa1b861","6195956ed32b22cf4649fc9b","1870","","d","true","[[402,18],[63,115],[51,467],[382,588],[599,310]]","true","5","main_T2_Trial","d","img/Fire_Up_Target.gif","[""img/Fire_Down_Distractor.gif"",""img/Fire_Down_Distractor.gif"",""img/Fire_Down_Distractor.gif"",""img/Fire_Down_Distractor.gif"",""img/Fire_Down_Distractor.gif"",""img/Fire_Down_Distractor.gif"",""img/Fire_Down_Distractor.gif"",""img/Fire_Down_Distractor.gif"",""img/Fire_Down_Distractor.gif"",""img/Fire_Down_Distractor.gif"",""img/Fire_Down_Distractor.gif"",""img/Fire_Down_Distractor.gif""]","5","targetUp_distractorsDown"
"","","","","","html-keyboard-response","150","295483","0.0-14.0-0.0-0.68","6009c2eda21be3026447d80e","619531dcf66c91622fa1b861","6195956ed32b22cf4649fc9b","null","","null","","","","","main_T1_ITI","","","","",""
"","","","","","visual-search-circle","151","297699","0.0-14.0-0.0-1.68","6009c2eda21be3026447d80e","619531dcf66c91622fa1b861","6195956ed32b22cf4649fc9b","1206.5999999940395","","s","false","[[57,476],[286,599],[525,497],[595,246],[442,35],[182,24],[10,220]]","true","7","main_T2_Trial","d","img/Fire_Up_Target.gif","[""img/Fire_Down_Distractor.gif"",""img/Fire_Down_Distractor.gif"",""img/Fire_Down_Distractor.gif"",""img/Fire_Down_Distractor.gif"",""img/Fire_Down_Distractor.gif"",""img/Fire_Down_Distractor.gif"",""img/Fire_Down_Distractor.gif"",""img/Fire_Down_Distractor.gif"",""img/Fire_Down_Distractor.gif"",""img/Fire_Down_Distractor.gif"",""img/Fire_Down_Distractor.gif"",""img/Fire_Down_Distractor.gif""]","7","targetUp_distractorsDown"
"","","","","","html-keyboard-response","152","297701","0.0-14.0-0.0-0.69","6009c2eda21be3026447d80e","619531dcf66c91622fa1b861","6195956ed32b22cf4649fc9b","null","","null","","","","","main_T1_ITI","","","","",""
"","","","","","visual-search-circle","153","300404","0.0-14.0-0.0-1.69","6009c2eda21be3026447d80e","619531dcf66c91622fa1b861","6195956ed32b22cf4649fc9b","1695.3999999761581","","d","true","[[73,103],[16,397],[242,594],[526,496],[583,202],[357,5]]","true","6","main_T2_Trial","d","img/Fire_Up_Target.gif","[""img/Fire_Down_Distractor.gif"",""img/Fire_Down_Distractor.gif"",""img/Fire_Down_Distractor.gif"",""img/Fire_Down_Distractor.gif"",""img/Fire_Down_Distractor.gif"",""img/Fire_Down_Distractor.gif"",""img/Fire_Down_Distractor.gif"",""img/Fire_Down_Distractor.gif"",""img/Fire_Down_Distractor.gif"",""img/Fire_Down_Distractor.gif"",""img/Fire_Down_Distractor.gif"",""img/Fire_Down_Distractor.gif""]","6","targetUp_distractorsDown"
"","","","","","html-keyboard-response","154","300406","0.0-14.0-0.0-0.70","6009c2eda21be3026447d80e","619531dcf66c91622fa1b861","6195956ed32b22cf4649fc9b","null","","null","","","","","main_T1_ITI","","","","",""
"","","","","","visual-search-circle","155","302504","0.0-14.0-0.0-1.70","6009c2eda21be3026447d80e","619531dcf66c91622fa1b861","6195956ed32b22cf4649fc9b","1085.5999999940395","","s","true","[[598,331],[331,1],[1,268],[268,598]]","false","4","main_T2_Trial","s","img/Fire_Down_Target.gif","[""img/Fire_Up_Distractor.gif"",""img/Fire_Up_Distractor.gif"",""img/Fire_Up_Distractor.gif"",""img/Fire_Up_Distractor.gif"",""img/Fire_Up_Distractor.gif"",""img/Fire_Up_Distractor.gif"",""img/Fire_Up_Distractor.gif"",""img/Fire_Up_Distractor.gif"",""img/Fire_Up_Distractor.gif"",""img/Fire_Up_Distractor.gif"",""img/Fire_Up_Distractor.gif"",""img/Fire_Up_Distractor.gif""]","4","targetDown_distractorsUp"
"","","","","","html-keyboard-response","156","302507","0.0-14.0-0.0-0.71","6009c2eda21be3026447d80e","619531dcf66c91622fa1b861","6195956ed32b22cf4649fc9b","null","","null","","","","","main_T1_ITI","","","","",""
"","","","","","visual-search-circle","157","304329","0.0-14.0-0.0-1.71","6009c2eda21be3026447d80e","619531dcf66c91622fa1b861","6195956ed32b22cf4649fc9b","801.7999999821186","","d","false","[[392,585],[567,436],[585,207],[436,32],[207,14],[32,163],[14,392],[163,567]]","false","8","main_T2_Trial","s","img/Fire_Up_Target.gif","[""img/Fire_Down_Distractor.gif"",""img/Fire_Down_Distractor.gif"",""img/Fire_Down_Distractor.gif"",""img/Fire_Down_Distractor.gif"",""img/Fire_Down_Distractor.gif"",""img/Fire_Down_Distractor.gif"",""img/Fire_Down_Distractor.gif"",""img/Fire_Down_Distractor.gif"",""img/Fire_Down_Distractor.gif"",""img/Fire_Down_Distractor.gif"",""img/Fire_Down_Distractor.gif"",""img/Fire_Down_Distractor.gif""]","8","targetUp_distractorsDown"
"","","","","","html-keyboard-response","158","304333","0.0-14.0-0.0-0.72","6009c2eda21be3026447d80e","619531dcf66c91622fa1b861","6195956ed32b22cf4649fc9b","null","","null","","","","","main_T1_ITI","","","","",""
"","","","","","visual-search-circle","159","306527","0.0-14.0-0.0-1.72","6009c2eda21be3026447d80e","619531dcf66c91622fa1b861","6195956ed32b22cf4649fc9b","1176.2999999821186","","d","true","[[182,576],[412,578],[576,417],[578,187],[417,23],[187,21],[23,182],[21,412]]","true","8","main_T2_Trial","d","img/Fire_Down_Target.gif","[""img/Fire_Up_Distractor.gif"",""img/Fire_Up_Distractor.gif"",""img/Fire_Up_Distractor.gif"",""img/Fire_Up_Distractor.gif"",""img/Fire_Up_Distractor.gif"",""img/Fire_Up_Distractor.gif"",""img/Fire_Up_Distractor.gif"",""img/Fire_Up_Distractor.gif"",""img/Fire_Up_Distractor.gif"",""img/Fire_Up_Distractor.gif"",""img/Fire_Up_Distractor.gif"",""img/Fire_Up_Distractor.gif""]","8","targetDown_distractorsUp"
"","","","","","html-keyboard-response","160","306534","0.0-14.0-0.0-0.73","6009c2eda21be3026447d80e","619531dcf66c91622fa1b861","6195956ed32b22cf4649fc9b","null","","null","","","","","main_T1_ITI","","","","",""
"","","","","","visual-search-circle","161","308439","0.0-14.0-0.0-1.73","6009c2eda21be3026447d80e","619531dcf66c91622fa1b861","6195956ed32b22cf4649fc9b","894.2000000178814","","s","true","[[557,454],[591,227],[454,42],[227,8],[42,145],[8,372],[145,557],[372,591]]","false","8","main_T2_Trial","s","img/Fire_Down_Target.gif","[""img/Fire_Up_Distractor.gif"",""img/Fire_Up_Distractor.gif"",""img/Fire_Up_Distractor.gif"",""img/Fire_Up_Distractor.gif"",""img/Fire_Up_Distractor.gif"",""img/Fire_Up_Distractor.gif"",""img/Fire_Up_Distractor.gif"",""img/Fire_Up_Distractor.gif"",""img/Fire_Up_Distractor.gif"",""img/Fire_Up_Distractor.gif"",""img/Fire_Up_Distractor.gif"",""img/Fire_Up_Distractor.gif""]","8","targetDown_distractorsUp"
"","","","","","html-keyboard-response","162","308442","0.0-14.0-0.0-0.74","6009c2eda21be3026447d80e","619531dcf66c91622fa1b861","6195956ed32b22cf4649fc9b","null","","null","","","","","main_T1_ITI","","","","",""
"","","","","","visual-search-circle","163","311818","0.0-14.0-0.0-1.74","6009c2eda21be3026447d80e","619531dcf66c91622fa1b861","6195956ed32b22cf4649fc9b","2353.5999999940395","","d","false","[[132,51],[0,276],[94,518],[343,596],[559,451],[579,191],[389,13]]","false","7","main_T2_Trial","s","img/Fire_Up_Target.gif","[""img/Fire_Down_Distractor.gif"",""img/Fire_Down_Distractor.gif"",""img/Fire_Down_Distractor.gif"",""img/Fire_Down_Distractor.gif"",""img/Fire_Down_Distractor.gif"",""img/Fire_Down_Distractor.gif"",""img/Fire_Down_Distractor.gif"",""img/Fire_Down_Distractor.gif"",""img/Fire_Down_Distractor.gif"",""img/Fire_Down_Distractor.gif"",""img/Fire_Down_Distractor.gif"",""img/Fire_Down_Distractor.gif""]","7","targetUp_distractorsDown"
"","","","","","html-keyboard-response","164","311822","0.0-14.0-0.0-0.75","6009c2eda21be3026447d80e","619531dcf66c91622fa1b861","6195956ed32b22cf4649fc9b","null","","null","","","","","main_T1_ITI","","","","",""
"","","","","","visual-search-circle","165","314539","0.0-14.0-0.0-1.75","6009c2eda21be3026447d80e","619531dcf66c91622fa1b861","6195956ed32b22cf4649fc9b","1703.2999999821186","","d","true","[[91,515],[382,588],[591,372],[508,84],[217,11],[8,227]]","true","6","main_T2_Trial","d","img/Fire_Up_Target.gif","[""img/Fire_Down_Distractor.gif"",""img/Fire_Down_Distractor.gif"",""img/Fire_Down_Distractor.gif"",""img/Fire_Down_Distractor.gif"",""img/Fire_Down_Distractor.gif"",""img/Fire_Down_Distractor.gif"",""img/Fire_Down_Distractor.gif"",""img/Fire_Down_Distractor.gif"",""img/Fire_Down_Distractor.gif"",""img/Fire_Down_Distractor.gif"",""img/Fire_Down_Distractor.gif"",""img/Fire_Down_Distractor.gif""]","6","targetUp_distractorsDown"
"","","","","","html-keyboard-response","166","314542","0.0-14.0-0.0-0.76","6009c2eda21be3026447d80e","619531dcf66c91622fa1b861","6195956ed32b22cf4649fc9b","null","","null","","","","","main_T1_ITI","","","","",""
"","","","","","visual-search-circle","167","317132","0.0-14.0-0.0-1.76","6009c2eda21be3026447d80e","619531dcf66c91622fa1b861","6195956ed32b22cf4649fc9b","1569.4000000059605","","s","true","[[533,111],[331,1],[111,66],[1,268],[66,488],[268,598],[488,533],[598,331]]","false","8","main_T2_Trial","s","img/Fire_Up_Target.gif","[""img/Fire_Down_Distractor.gif"",""img/Fire_Down_Distractor.gif"",""img/Fire_Down_Distractor.gif"",""img/Fire_Down_Distractor.gif"",""img/Fire_Down_Distractor.gif"",""img/Fire_Down_Distractor.gif"",""img/Fire_Down_Distractor.gif"",""img/Fire_Down_Distractor.gif"",""img/Fire_Down_Distractor.gif"",""img/Fire_Down_Distractor.gif"",""img/Fire_Down_Distractor.gif"",""img/Fire_Down_Distractor.gif""]","8","targetUp_distractorsDown"
"","","","","","html-keyboard-response","168","317134","0.0-14.0-0.0-0.77","6009c2eda21be3026447d80e","619531dcf66c91622fa1b861","6195956ed32b22cf4649fc9b","null","","null","","","","","main_T1_ITI","","","","",""
"","","","","","visual-search-circle","169","319103","0.0-14.0-0.0-1.77","6009c2eda21be3026447d80e","619531dcf66c91622fa1b861","6195956ed32b22cf4649fc9b","961.0999999940395","","s","true","[[19,407],[253,596],[533,488],[580,192],[346,3],[66,111]]","false","6","main_T2_Trial","s","img/Fire_Down_Target.gif","[""img/Fire_Up_Distractor.gif"",""img/Fire_Up_Distractor.gif"",""img/Fire_Up_Distractor.gif"",""img/Fire_Up_Distractor.gif"",""img/Fire_Up_Distractor.gif"",""img/Fire_Up_Distractor.gif"",""img/Fire_Up_Distractor.gif"",""img/Fire_Up_Distractor.gif"",""img/Fire_Up_Distractor.gif"",""img/Fire_Up_Distractor.gif"",""img/Fire_Up_Distractor.gif"",""img/Fire_Up_Distractor.gif""]","6","targetDown_distractorsUp"
"","","","","","html-keyboard-response","170","319104","0.0-14.0-0.0-0.78","6009c2eda21be3026447d80e","619531dcf66c91622fa1b861","6195956ed32b22cf4649fc9b","null","","null","","","","","main_T1_ITI","","","","",""
"","","","","","visual-search-circle","171","321530","0.0-14.0-0.0-1.78","6009c2eda21be3026447d80e","619531dcf66c91622fa1b861","6195956ed32b22cf4649fc9b","1409.199999988079","","d","false","[[247,595],[498,524],[599,285],[475,56],[218,11],[23,183],[36,443]]","false","7","main_T2_Trial","s","img/Fire_Up_Target.gif","[""img/Fire_Down_Distractor.gif"",""img/Fire_Down_Distractor.gif"",""img/Fire_Down_Distractor.gif"",""img/Fire_Down_Distractor.gif"",""img/Fire_Down_Distractor.gif"",""img/Fire_Down_Distractor.gif"",""img/Fire_Down_Distractor.gif"",""img/Fire_Down_Distractor.gif"",""img/Fire_Down_Distractor.gif"",""img/Fire_Down_Distractor.gif"",""img/Fire_Down_Distractor.gif"",""img/Fire_Down_Distractor.gif""]","7","targetUp_distractorsDown"
"","","","","","html-keyboard-response","172","326936","0.0-14.0-0.0-0.79","6009c2eda21be3026447d80e","619531dcf66c91622fa1b861","6195956ed32b22cf4649fc9b","5404.399999976158","Wow! You've completed 80 out of 160 trials! </p> <p>  </p><p> Take a quick break, then press any key when you're ready to continue."," ","","","","","main_T1_ITI","","","","",""
"","","","","","visual-search-circle","173","328998","0.0-14.0-0.0-1.79","6009c2eda21be3026447d80e","619531dcf66c91622fa1b861","6195956ed32b22cf4649fc9b","1048.0999999940395","","d","true","[[13,212],[35,440],[212,586],[440,564],[586,387],[564,159],[387,13],[159,35]]","true","8","main_T2_Trial","d","img/Fire_Down_Target.gif","[""img/Fire_Up_Distractor.gif"",""img/Fire_Up_Distractor.gif"",""img/Fire_Up_Distractor.gif"",""img/Fire_Up_Distractor.gif"",""img/Fire_Up_Distractor.gif"",""img/Fire_Up_Distractor.gif"",""img/Fire_Up_Distractor.gif"",""img/Fire_Up_Distractor.gif"",""img/Fire_Up_Distractor.gif"",""img/Fire_Up_Distractor.gif"",""img/Fire_Up_Distractor.gif"",""img/Fire_Up_Distractor.gif""]","8","targetDown_distractorsUp"
"","","","","","html-keyboard-response","174","329000","0.0-14.0-0.0-0.80","6009c2eda21be3026447d80e","619531dcf66c91622fa1b861","6195956ed32b22cf4649fc9b","null","","null","","","","","main_T1_ITI","","","","",""
"","","","","","visual-search-circle","175","330866","0.0-14.0-0.0-1.80","6009c2eda21be3026447d80e","619531dcf66c91622fa1b861","6195956ed32b22cf4649fc9b","849.6000000238419","","s","true","[[463,551],[589,222],[315,0],[19,192],[111,533]]","false","5","main_T2_Trial","s","img/Fire_Down_Target.gif","[""img/Fire_Up_Distractor.gif"",""img/Fire_Up_Distractor.gif"",""img/Fire_Up_Distractor.gif"",""img/Fire_Up_Distractor.gif"",""img/Fire_Up_Distractor.gif"",""img/Fire_Up_Distractor.gif"",""img/Fire_Up_Distractor.gif"",""img/Fire_Up_Distractor.gif"",""img/Fire_Up_Distractor.gif"",""img/Fire_Up_Distractor.gif"",""img/Fire_Up_Distractor.gif"",""img/Fire_Up_Distractor.gif""]","5","targetDown_distractorsUp"
"","","","","","html-keyboard-response","176","330870","0.0-14.0-0.0-0.81","6009c2eda21be3026447d80e","619531dcf66c91622fa1b861","6195956ed32b22cf4649fc9b","null","","null","","","","","main_T1_ITI","","","","",""
"","","","","","visual-search-circle","177","332589","0.0-14.0-0.0-1.81","6009c2eda21be3026447d80e","619531dcf66c91622fa1b861","6195956ed32b22cf4649fc9b","702.7000000178814","","s","true","[[367,592],[586,387],[519,95],[232,7],[13,212],[80,504]]","false","6","main_T2_Trial","s","img/Fire_Down_Target.gif","[""img/Fire_Up_Distractor.gif"",""img/Fire_Up_Distractor.gif"",""img/Fire_Up_Distractor.gif"",""img/Fire_Up_Distractor.gif"",""img/Fire_Up_Distractor.gif"",""img/Fire_Up_Distractor.gif"",""img/Fire_Up_Distractor.gif"",""img/Fire_Up_Distractor.gif"",""img/Fire_Up_Distractor.gif"",""img/Fire_Up_Distractor.gif"",""img/Fire_Up_Distractor.gif"",""img/Fire_Up_Distractor.gif""]","6","targetDown_distractorsUp"
"","","","","","html-keyboard-response","178","332591","0.0-14.0-0.0-0.82","6009c2eda21be3026447d80e","619531dcf66c91622fa1b861","6195956ed32b22cf4649fc9b","null","","null","","","","","main_T1_ITI","","","","",""
"","","","","","visual-search-circle","179","334403","0.0-14.0-0.0-1.82","6009c2eda21be3026447d80e","619531dcf66c91622fa1b861","6195956ed32b22cf4649fc9b","799.4000000059605","","s","true","[[159,35],[0,289],[141,554],[440,564],[599,310],[458,45]]","false","6","main_T2_Trial","s","img/Fire_Down_Target.gif","[""img/Fire_Up_Distractor.gif"",""img/Fire_Up_Distractor.gif"",""img/Fire_Up_Distractor.gif"",""img/Fire_Up_Distractor.gif"",""img/Fire_Up_Distractor.gif"",""img/Fire_Up_Distractor.gif"",""img/Fire_Up_Distractor.gif"",""img/Fire_Up_Distractor.gif"",""img/Fire_Up_Distractor.gif"",""img/Fire_Up_Distractor.gif"",""img/Fire_Up_Distractor.gif"",""img/Fire_Up_Distractor.gif""]","6","targetDown_distractorsUp"
"","","","","","html-keyboard-response","180","334404","0.0-14.0-0.0-0.83","6009c2eda21be3026447d80e","619531dcf66c91622fa1b861","6195956ed32b22cf4649fc9b","null","","null","","","","","main_T1_ITI","","","","",""
"","","","","","visual-search-circle","181","336221","0.0-14.0-0.0-1.83","6009c2eda21be3026447d80e","619531dcf66c91622fa1b861","6195956ed32b22cf4649fc9b","797.5999999940395","","d","true","[[0,310],[159,564],[458,554],[599,289],[440,35],[141,45]]","true","6","main_T2_Trial","d","img/Fire_Down_Target.gif","[""img/Fire_Up_Distractor.gif"",""img/Fire_Up_Distractor.gif"",""img/Fire_Up_Distractor.gif"",""img/Fire_Up_Distractor.gif"",""img/Fire_Up_Distractor.gif"",""img/Fire_Up_Distractor.gif"",""img/Fire_Up_Distractor.gif"",""img/Fire_Up_Distractor.gif"",""img/Fire_Up_Distractor.gif"",""img/Fire_Up_Distractor.gif"",""img/Fire_Up_Distractor.gif"",""img/Fire_Up_Distractor.gif""]","6","targetDown_distractorsUp"
"","","","","","html-keyboard-response","182","336223","0.0-14.0-0.0-0.84","6009c2eda21be3026447d80e","619531dcf66c91622fa1b861","6195956ed32b22cf4649fc9b","null","","null","","","","","main_T1_ITI","","","","",""
"","","","","","visual-search-circle","183","339034","0.0-14.0-0.0-1.84","6009c2eda21be3026447d80e","619531dcf66c91622fa1b861","6195956ed32b22cf4649fc9b","1790.5999999940395","","d","true","[[212,13],[0,294],[202,583],[539,480],[545,127]]","true","5","main_T2_Trial","d","img/Fire_Up_Target.gif","[""img/Fire_Down_Distractor.gif"",""img/Fire_Down_Distractor.gif"",""img/Fire_Down_Distractor.gif"",""img/Fire_Down_Distractor.gif"",""img/Fire_Down_Distractor.gif"",""img/Fire_Down_Distractor.gif"",""img/Fire_Down_Distractor.gif"",""img/Fire_Down_Distractor.gif"",""img/Fire_Down_Distractor.gif"",""img/Fire_Down_Distractor.gif"",""img/Fire_Down_Distractor.gif"",""img/Fire_Down_Distractor.gif""]","5","targetUp_distractorsDown"
"","","","","","html-keyboard-response","184","339040","0.0-14.0-0.0-0.85","6009c2eda21be3026447d80e","619531dcf66c91622fa1b861","6195956ed32b22cf4649fc9b","null","","null","","","","","main_T1_ITI","","","","",""
"","","","","","visual-search-circle","185","340949","0.0-14.0-0.0-1.85","6009c2eda21be3026447d80e","619531dcf66c91622fa1b861","6195956ed32b22cf4649fc9b","888.3000000119209","","d","true","[[310,599],[588,382],[467,51],[115,63],[18,402]]","true","5","main_T2_Trial","d","img/Fire_Down_Target.gif","[""img/Fire_Up_Distractor.gif"",""img/Fire_Up_Distractor.gif"",""img/Fire_Up_Distractor.gif"",""img/Fire_Up_Distractor.gif"",""img/Fire_Up_Distractor.gif"",""img/Fire_Up_Distractor.gif"",""img/Fire_Up_Distractor.gif"",""img/Fire_Up_Distractor.gif"",""img/Fire_Up_Distractor.gif"",""img/Fire_Up_Distractor.gif"",""img/Fire_Up_Distractor.gif"",""img/Fire_Up_Distractor.gif""]","5","targetDown_distractorsUp"
"","","","","","html-keyboard-response","186","340951","0.0-14.0-0.0-0.86","6009c2eda21be3026447d80e","619531dcf66c91622fa1b861","6195956ed32b22cf4649fc9b","null","","null","","","","","main_T1_ITI","","","","",""
"","","","","","visual-search-circle","187","342974","0.0-14.0-0.0-1.86","6009c2eda21be3026447d80e","619531dcf66c91622fa1b861","6195956ed32b22cf4649fc9b","1014.4000000059605","","s","true","[[18,197],[70,492],[352,595],[581,402],[529,107],[247,4]]","false","6","main_T2_Trial","s","img/Fire_Up_Target.gif","[""img/Fire_Down_Distractor.gif"",""img/Fire_Down_Distractor.gif"",""img/Fire_Down_Distractor.gif"",""img/Fire_Down_Distractor.gif"",""img/Fire_Down_Distractor.gif"",""img/Fire_Down_Distractor.gif"",""img/Fire_Down_Distractor.gif"",""img/Fire_Down_Distractor.gif"",""img/Fire_Down_Distractor.gif"",""img/Fire_Down_Distractor.gif"",""img/Fire_Down_Distractor.gif"",""img/Fire_Down_Distractor.gif""]","6","targetUp_distractorsDown"
"","","","","","html-keyboard-response","188","342976","0.0-14.0-0.0-0.87","6009c2eda21be3026447d80e","619531dcf66c91622fa1b861","6195956ed32b22cf4649fc9b","null","","null","","","","","main_T1_ITI","","","","",""
"","","","","","visual-search-circle","189","344792","0.0-14.0-0.0-1.87","6009c2eda21be3026447d80e","619531dcf66c91622fa1b861","6195956ed32b22cf4649fc9b","807.4000000059605","","s","true","[[564,440],[440,35],[35,159],[159,564]]","false","4","main_T2_Trial","s","img/Fire_Down_Target.gif","[""img/Fire_Up_Distractor.gif"",""img/Fire_Up_Distractor.gif"",""img/Fire_Up_Distractor.gif"",""img/Fire_Up_Distractor.gif"",""img/Fire_Up_Distractor.gif"",""img/Fire_Up_Distractor.gif"",""img/Fire_Up_Distractor.gif"",""img/Fire_Up_Distractor.gif"",""img/Fire_Up_Distractor.gif"",""img/Fire_Up_Distractor.gif"",""img/Fire_Up_Distractor.gif"",""img/Fire_Up_Distractor.gif""]","4","targetDown_distractorsUp"
"","","","","","html-keyboard-response","190","344795","0.0-14.0-0.0-0.88","6009c2eda21be3026447d80e","619531dcf66c91622fa1b861","6195956ed32b22cf4649fc9b","null","","null","","","","","main_T1_ITI","","","","",""
"","","","","","visual-search-circle","191","347860","0.0-14.0-0.0-1.88","6009c2eda21be3026447d80e","619531dcf66c91622fa1b861","6195956ed32b22cf4649fc9b","2041.7999999821186","","d","true","[[326,1],[107,70],[1,273],[70,492],[273,598],[492,529],[598,326],[529,107]]","true","8","main_T2_Trial","d","img/Fire_Down_Target.gif","[""img/Fire_Up_Distractor.gif"",""img/Fire_Up_Distractor.gif"",""img/Fire_Up_Distractor.gif"",""img/Fire_Up_Distractor.gif"",""img/Fire_Up_Distractor.gif"",""img/Fire_Up_Distractor.gif"",""img/Fire_Up_Distractor.gif"",""img/Fire_Up_Distractor.gif"",""img/Fire_Up_Distractor.gif"",""img/Fire_Up_Distractor.gif"",""img/Fire_Up_Distractor.gif"",""img/Fire_Up_Distractor.gif""]","8","targetDown_distractorsUp"
"","","","","","html-keyboard-response","192","347862","0.0-14.0-0.0-0.89","6009c2eda21be3026447d80e","619531dcf66c91622fa1b861","6195956ed32b22cf4649fc9b","null","","null","","","","","main_T1_ITI","","","","",""
"","","","","","visual-search-circle","193","350392","0.0-14.0-0.0-1.89","6009c2eda21be3026447d80e","619531dcf66c91622fa1b861","6195956ed32b22cf4649fc9b","1511","","d","true","[[60,480],[336,597],[576,417],[539,119],[263,2],[23,182]]","true","6","main_T2_Trial","d","img/Fire_Up_Target.gif","[""img/Fire_Down_Distractor.gif"",""img/Fire_Down_Distractor.gif"",""img/Fire_Down_Distractor.gif"",""img/Fire_Down_Distractor.gif"",""img/Fire_Down_Distractor.gif"",""img/Fire_Down_Distractor.gif"",""img/Fire_Down_Distractor.gif"",""img/Fire_Down_Distractor.gif"",""img/Fire_Down_Distractor.gif"",""img/Fire_Down_Distractor.gif"",""img/Fire_Down_Distractor.gif"",""img/Fire_Down_Distractor.gif""]","6","targetUp_distractorsDown"
"","","","","","html-keyboard-response","194","350397","0.0-14.0-0.0-0.90","6009c2eda21be3026447d80e","619531dcf66c91622fa1b861","6195956ed32b22cf4649fc9b","null","","null","","","","","main_T1_ITI","","","","",""
"","","","","","visual-search-circle","195","352355","0.0-14.0-0.0-1.90","6009c2eda21be3026447d80e","619531dcf66c91622fa1b861","6195956ed32b22cf4649fc9b","943.9000000059605","","s","true","[[23,182],[60,480],[336,597],[576,417],[539,119],[263,2]]","false","6","main_T2_Trial","s","img/Fire_Down_Target.gif","[""img/Fire_Up_Distractor.gif"",""img/Fire_Up_Distractor.gif"",""img/Fire_Up_Distractor.gif"",""img/Fire_Up_Distractor.gif"",""img/Fire_Up_Distractor.gif"",""img/Fire_Up_Distractor.gif"",""img/Fire_Up_Distractor.gif"",""img/Fire_Up_Distractor.gif"",""img/Fire_Up_Distractor.gif"",""img/Fire_Up_Distractor.gif"",""img/Fire_Up_Distractor.gif"",""img/Fire_Up_Distractor.gif""]","6","targetDown_distractorsUp"
"","","","","","html-keyboard-response","196","352356","0.0-14.0-0.0-0.91","6009c2eda21be3026447d80e","619531dcf66c91622fa1b861","6195956ed32b22cf4649fc9b","null","","null","","","","","main_T1_ITI","","","","",""
"","","","","","visual-search-circle","197","355334","0.0-14.0-0.0-1.91","6009c2eda21be3026447d80e","619531dcf66c91622fa1b861","6195956ed32b22cf4649fc9b","1968.800000011921","","s","true","[[526,103],[242,5],[16,202],[73,496],[357,594],[583,397]]","false","6","main_T2_Trial","s","img/Fire_Up_Target.gif","[""img/Fire_Down_Distractor.gif"",""img/Fire_Down_Distractor.gif"",""img/Fire_Down_Distractor.gif"",""img/Fire_Down_Distractor.gif"",""img/Fire_Down_Distractor.gif"",""img/Fire_Down_Distractor.gif"",""img/Fire_Down_Distractor.gif"",""img/Fire_Down_Distractor.gif"",""img/Fire_Down_Distractor.gif"",""img/Fire_Down_Distractor.gif"",""img/Fire_Down_Distractor.gif"",""img/Fire_Down_Distractor.gif""]","6","targetUp_distractorsDown"
"","","","","","html-keyboard-response","198","355335","0.0-14.0-0.0-0.92","6009c2eda21be3026447d80e","619531dcf66c91622fa1b861","6195956ed32b22cf4649fc9b","null","","null","","","","","main_T1_ITI","","","","",""
"","","","","","visual-search-circle","199","358609","0.0-14.0-0.0-1.92","6009c2eda21be3026447d80e","619531dcf66c91622fa1b861","6195956ed32b22cf4649fc9b","2261","","d","true","[[522,99],[177,25],[1,331],[237,593],[559,450]]","true","5","main_T2_Trial","d","img/Fire_Up_Target.gif","[""img/Fire_Down_Distractor.gif"",""img/Fire_Down_Distractor.gif"",""img/Fire_Down_Distractor.gif"",""img/Fire_Down_Distractor.gif"",""img/Fire_Down_Distractor.gif"",""img/Fire_Down_Distractor.gif"",""img/Fire_Down_Distractor.gif"",""img/Fire_Down_Distractor.gif"",""img/Fire_Down_Distractor.gif"",""img/Fire_Down_Distractor.gif"",""img/Fire_Down_Distractor.gif"",""img/Fire_Down_Distractor.gif""]","5","targetUp_distractorsDown"
"","","","","","html-keyboard-response","200","358647","0.0-14.0-0.0-0.93","6009c2eda21be3026447d80e","619531dcf66c91622fa1b861","6195956ed32b22cf4649fc9b","null","","null","","","","","main_T1_ITI","","","","",""
"","","","","","visual-search-circle","201","360867","0.0-14.0-0.0-1.93","6009c2eda21be3026447d80e","619531dcf66c91622fa1b861","6195956ed32b22cf4649fc9b","1211.5999999940395","","s","true","[[598,273],[273,1],[1,326],[326,598]]","false","4","main_T2_Trial","s","img/Fire_Down_Target.gif","[""img/Fire_Up_Distractor.gif"",""img/Fire_Up_Distractor.gif"",""img/Fire_Up_Distractor.gif"",""img/Fire_Up_Distractor.gif"",""img/Fire_Up_Distractor.gif"",""img/Fire_Up_Distractor.gif"",""img/Fire_Up_Distractor.gif"",""img/Fire_Up_Distractor.gif"",""img/Fire_Up_Distractor.gif"",""img/Fire_Up_Distractor.gif"",""img/Fire_Up_Distractor.gif"",""img/Fire_Up_Distractor.gif""]","4","targetDown_distractorsUp"
"","","","","","html-keyboard-response","202","360869","0.0-14.0-0.0-0.94","6009c2eda21be3026447d80e","619531dcf66c91622fa1b861","6195956ed32b22cf4649fc9b","null","","null","","","","","main_T1_ITI","","","","",""
"","","","","","visual-search-circle","203","362692","0.0-14.0-0.0-1.94","6009c2eda21be3026447d80e","619531dcf66c91622fa1b861","6195956ed32b22cf4649fc9b","804.7999999821186","","s","true","[[8,227],[61,482],[294,599],[530,491],[593,239],[435,32],[175,27]]","false","7","main_T2_Trial","s","img/Fire_Down_Target.gif","[""img/Fire_Up_Distractor.gif"",""img/Fire_Up_Distractor.gif"",""img/Fire_Up_Distractor.gif"",""img/Fire_Up_Distractor.gif"",""img/Fire_Up_Distractor.gif"",""img/Fire_Up_Distractor.gif"",""img/Fire_Up_Distractor.gif"",""img/Fire_Up_Distractor.gif"",""img/Fire_Up_Distractor.gif"",""img/Fire_Up_Distractor.gif"",""img/Fire_Up_Distractor.gif"",""img/Fire_Up_Distractor.gif""]","7","targetDown_distractorsUp"
"","","","","","html-keyboard-response","204","362694","0.0-14.0-0.0-0.95","6009c2eda21be3026447d80e","619531dcf66c91622fa1b861","6195956ed32b22cf4649fc9b","null","","null","","","","","main_T1_ITI","","","","",""
"","","","","","visual-search-circle","205","365220","0.0-14.0-0.0-1.95","6009c2eda21be3026447d80e","619531dcf66c91622fa1b861","6195956ed32b22cf4649fc9b","1512","","s","true","[[145,557],[557,454],[454,42],[42,145]]","false","4","main_T2_Trial","s","img/Fire_Up_Target.gif","[""img/Fire_Down_Distractor.gif"",""img/Fire_Down_Distractor.gif"",""img/Fire_Down_Distractor.gif"",""img/Fire_Down_Distractor.gif"",""img/Fire_Down_Distractor.gif"",""img/Fire_Down_Distractor.gif"",""img/Fire_Down_Distractor.gif"",""img/Fire_Down_Distractor.gif"",""img/Fire_Down_Distractor.gif"",""img/Fire_Down_Distractor.gif"",""img/Fire_Down_Distractor.gif"",""img/Fire_Down_Distractor.gif""]","4","targetUp_distractorsDown"
"","","","","","html-keyboard-response","206","365222","0.0-14.0-0.0-0.96","6009c2eda21be3026447d80e","619531dcf66c91622fa1b861","6195956ed32b22cf4649fc9b","null","","null","","","","","main_T1_ITI","","","","",""
"","","","","","visual-search-circle","207","367053","0.0-14.0-0.0-1.96","6009c2eda21be3026447d80e","619531dcf66c91622fa1b861","6195956ed32b22cf4649fc9b","810.3000000119209","","d","true","[[163,567],[567,436],[436,32],[32,163]]","true","4","main_T2_Trial","d","img/Fire_Up_Target.gif","[""img/Fire_Down_Distractor.gif"",""img/Fire_Down_Distractor.gif"",""img/Fire_Down_Distractor.gif"",""img/Fire_Down_Distractor.gif"",""img/Fire_Down_Distractor.gif"",""img/Fire_Down_Distractor.gif"",""img/Fire_Down_Distractor.gif"",""img/Fire_Down_Distractor.gif"",""img/Fire_Down_Distractor.gif"",""img/Fire_Down_Distractor.gif"",""img/Fire_Down_Distractor.gif"",""img/Fire_Down_Distractor.gif""]","4","targetUp_distractorsDown"
"","","","","","html-keyboard-response","208","367055","0.0-14.0-0.0-0.97","6009c2eda21be3026447d80e","619531dcf66c91622fa1b861","6195956ed32b22cf4649fc9b","null","","null","","","","","main_T1_ITI","","","","",""
"","","","","","visual-search-circle","209","369849","0.0-14.0-0.0-1.97","6009c2eda21be3026447d80e","619531dcf66c91622fa1b861","6195956ed32b22cf4649fc9b","1775.300000011921","","s","false","[[177,25],[9,224],[59,479],[291,599],[528,493],[594,242],[438,33]]","true","7","main_T2_Trial","d","img/Fire_Up_Target.gif","[""img/Fire_Down_Distractor.gif"",""img/Fire_Down_Distractor.gif"",""img/Fire_Down_Distractor.gif"",""img/Fire_Down_Distractor.gif"",""img/Fire_Down_Distractor.gif"",""img/Fire_Down_Distractor.gif"",""img/Fire_Down_Distractor.gif"",""img/Fire_Down_Distractor.gif"",""img/Fire_Down_Distractor.gif"",""img/Fire_Down_Distractor.gif"",""img/Fire_Down_Distractor.gif"",""img/Fire_Down_Distractor.gif""]","7","targetUp_distractorsDown"
"","","","","","html-keyboard-response","210","369853","0.0-14.0-0.0-0.98","6009c2eda21be3026447d80e","619531dcf66c91622fa1b861","6195956ed32b22cf4649fc9b","null","","null","","","","","main_T1_ITI","","","","",""
"","","","","","visual-search-circle","211","372730","0.0-14.0-0.0-1.98","6009c2eda21be3026447d80e","619531dcf66c91622fa1b861","6195956ed32b22cf4649fc9b","1864.7999999821186","","s","false","[[576,182],[273,1],[7,232],[145,557],[496,526]]","true","5","main_T2_Trial","d","img/Fire_Down_Target.gif","[""img/Fire_Up_Distractor.gif"",""img/Fire_Up_Distractor.gif"",""img/Fire_Up_Distractor.gif"",""img/Fire_Up_Distractor.gif"",""img/Fire_Up_Distractor.gif"",""img/Fire_Up_Distractor.gif"",""img/Fire_Up_Distractor.gif"",""img/Fire_Up_Distractor.gif"",""img/Fire_Up_Distractor.gif"",""img/Fire_Up_Distractor.gif"",""img/Fire_Up_Distractor.gif"",""img/Fire_Up_Distractor.gif""]","5","targetDown_distractorsUp"
"","","","","","html-keyboard-response","212","390826","0.0-14.0-0.0-0.99","6009c2eda21be3026447d80e","619531dcf66c91622fa1b861","6195956ed32b22cf4649fc9b","18095.69999998808","Wow! You've completed 100 out of 160 trials! </p> <p>  </p><p> Take a quick break, then press any key when you're ready to continue."," ","","","","","main_T1_ITI","","","","",""
"","","","","","visual-search-circle","213","393580","0.0-14.0-0.0-1.99","6009c2eda21be3026447d80e","619531dcf66c91622fa1b861","6195956ed32b22cf4649fc9b","1738.2999999821186","","s","false","[[16,397],[397,583],[583,202],[202,16]]","true","4","main_T2_Trial","d","img/Fire_Up_Target.gif","[""img/Fire_Down_Distractor.gif"",""img/Fire_Down_Distractor.gif"",""img/Fire_Down_Distractor.gif"",""img/Fire_Down_Distractor.gif"",""img/Fire_Down_Distractor.gif"",""img/Fire_Down_Distractor.gif"",""img/Fire_Down_Distractor.gif"",""img/Fire_Down_Distractor.gif"",""img/Fire_Down_Distractor.gif"",""img/Fire_Down_Distractor.gif"",""img/Fire_Down_Distractor.gif"",""img/Fire_Down_Distractor.gif""]","4","targetUp_distractorsDown"
"","","","","","html-keyboard-response","214","393582","0.0-14.0-0.0-0.100","6009c2eda21be3026447d80e","619531dcf66c91622fa1b861","6195956ed32b22cf4649fc9b","null","","null","","","","","main_T1_ITI","","","","",""
"","","","","","visual-search-circle","215","396048","0.0-14.0-0.0-1.100","6009c2eda21be3026447d80e","619531dcf66c91622fa1b861","6195956ed32b22cf4649fc9b","1443","","d","true","[[222,10],[10,222],[87,512],[377,589],[589,377],[512,87]]","true","6","main_T2_Trial","d","img/Fire_Down_Target.gif","[""img/Fire_Up_Distractor.gif"",""img/Fire_Up_Distractor.gif"",""img/Fire_Up_Distractor.gif"",""img/Fire_Up_Distractor.gif"",""img/Fire_Up_Distractor.gif"",""img/Fire_Up_Distractor.gif"",""img/Fire_Up_Distractor.gif"",""img/Fire_Up_Distractor.gif"",""img/Fire_Up_Distractor.gif"",""img/Fire_Up_Distractor.gif"",""img/Fire_Up_Distractor.gif"",""img/Fire_Up_Distractor.gif""]","6","targetDown_distractorsUp"
"","","","","","html-keyboard-response","216","396055","0.0-14.0-0.0-0.101","6009c2eda21be3026447d80e","619531dcf66c91622fa1b861","6195956ed32b22cf4649fc9b","null","","null","","","","","main_T1_ITI","","","","",""
