"success","timeout","failed_images","failed_audio","failed_video","trial_type","trial_index","time_elapsed","internal_node_id","subject_id","study_id","session_id","rt","stimulus","response","correct","locations","target_present","set_size","task","correct_response","target","foilCM","setSizeCM","searchCondition"
"true","false","[]","[]","[]","preload","0","280357","0.0-0.0","60143a1a222eb43daf203877","619531dcf66c91622fa1b861","619595f2226b3fea0d3ebd83","","","","","","","","","","","","",""
"true","","","","","fullscreen","1","591585","0.0-1.0","60143a1a222eb43daf203877","619531dcf66c91622fa1b861","619595f2226b3fea0d3ebd83","","","","","","","","","","","","",""
"","","","","","html-keyboard-response","2","598065","0.0-2.0","60143a1a222eb43daf203877","619531dcf66c91622fa1b861","619595f2226b3fea0d3ebd83","6478.699999988079","What a beautiful Thursday to do some awesome science! </p> <p>  </p><p> </p>
    By completing this survey or questionnaire, you are consenting to be in this research study. </p>
    Your participation is voluntary and you can stop at any time.
    <p> [Press any key to continue.] </p>
    
    "," ","","","","","","","","","",""
"","","","","","video-keyboard-response","3","624585","0.0-3.0","60143a1a222eb43daf203877","619531dcf66c91622fa1b861","619595f2226b3fea0d3ebd83","26518.5","[""video/TaskInstructions.mp4""]"," ","","","","","","","","","",""
"","","","","","html-keyboard-response","4","626686","0.0-4.0","60143a1a222eb43daf203877","619531dcf66c91622fa1b861","619595f2226b3fea0d3ebd83","2101","
    <p>First, we're going to do a few practice trials to make sure you understand the task. You will recieve feedback on each trial. </p>
    <p>[Press any key to begin the familiarization phase.]</p>
    "," ","","","","","","","","","",""
"","","","","","visual-search-circle","5","631737","0.0-5.0-0.0","60143a1a222eb43daf203877","619531dcf66c91622fa1b861","619595f2226b3fea0d3ebd83","3980.5","","s","false","[[279,0],[0,320],[320,599],[599,279]]","true","4","training","d","","","",""
"","","","","","html-keyboard-response","6","636652","0.0-6.0","60143a1a222eb43daf203877","619531dcf66c91622fa1b861","619595f2226b3fea0d3ebd83","4914.79999999702"," <div style='float: center;'><img src='img/feedbackWrong.png'></img> </div> "," ","","","","","","","","","",""
"","","","","","visual-search-circle","7","638964","0.0-7.0-0.0","60143a1a222eb43daf203877","619531dcf66c91622fa1b861","619595f2226b3fea0d3ebd83","1299","","d","false","[[232,592],[592,367],[367,7],[7,232]]","false","4","training","s","","","",""
"","","","","","html-keyboard-response","8","639847","0.0-8.0","60143a1a222eb43daf203877","619531dcf66c91622fa1b861","619595f2226b3fea0d3ebd83","882.2000000029802"," <div style='float: center;'><img src='img/feedbackWrong.png'></img> </div> "," ","","","","","","","","","",""
"","","","","","visual-search-circle","9","644748","0.0-9.0-0.0","60143a1a222eb43daf203877","619531dcf66c91622fa1b861","619595f2226b3fea0d3ebd83","3886.5999999940395","","s","true","[[551,136],[284,0],[32,163],[48,463],[315,599],[567,436]]","false","6","training","s","","","",""
"","","","","","html-keyboard-response","10","645547","0.0-10.0","60143a1a222eb43daf203877","619531dcf66c91622fa1b861","619595f2226b3fea0d3ebd83","797.9000000059605"," <div style='float: center; '><img src='img/feedbackRight.png'></img> </div> "," ","","","","","","","","","",""
"","","","","","visual-search-circle","11","647981","0.0-11.0-0.0","60143a1a222eb43daf203877","619531dcf66c91622fa1b861","619595f2226b3fea0d3ebd83","1429.7000000029802","","d","true","[[77,99],[0,315],[99,522],[315,599],[522,500],[599,284],[500,77],[284,0]]","true","8","training","d","","","",""
"","","","","","html-keyboard-response","12","648515","0.0-12.0","60143a1a222eb43daf203877","619531dcf66c91622fa1b861","619595f2226b3fea0d3ebd83","533.5999999940395"," <div style='float: center; '><img src='img/feedbackRight.png'></img> </div> "," ","","","","","","","","","",""
"","","","","","video-keyboard-response","13","651591","0.0-13.0","60143a1a222eb43daf203877","619531dcf66c91622fa1b861","619595f2226b3fea0d3ebd83","3074.7000000029802","[""video/endTraining.mp4""]"," ","","","","","","","","","",""
"","","","","","html-keyboard-response","14","651593","0.0-14.0-0.0-0.0","60143a1a222eb43daf203877","619531dcf66c91622fa1b861","619595f2226b3fea0d3ebd83","null","","null","","","","","main_T1_ITI","","","","",""
"","","","","","visual-search-circle","15","654958","0.0-14.0-0.0-1.0","60143a1a222eb43daf203877","619531dcf66c91622fa1b861","619595f2226b3fea0d3ebd83","2352.7000000029802","","s","true","[[115,536],[369,591],[571,427],[568,167],[363,6],[110,67],[0,302]]","false","7","main_T2_Trial","s","img/Fire_Up_Target.gif","[""img/Fire_Down_Distractor.gif"",""img/Fire_Down_Distractor.gif"",""img/Fire_Down_Distractor.gif"",""img/Fire_Down_Distractor.gif"",""img/Fire_Down_Distractor.gif"",""img/Fire_Down_Distractor.gif"",""img/Fire_Down_Distractor.gif"",""img/Fire_Down_Distractor.gif"",""img/Fire_Down_Distractor.gif"",""img/Fire_Down_Distractor.gif"",""img/Fire_Down_Distractor.gif"",""img/Fire_Down_Distractor.gif""]","7","targetUp_distractorsDown"
"","","","","","html-keyboard-response","16","654959","0.0-14.0-0.0-0.1","60143a1a222eb43daf203877","619531dcf66c91622fa1b861","619595f2226b3fea0d3ebd83","null","","null","","","","","main_T1_ITI","","","","",""
"","","","","","visual-search-circle","17","658601","0.0-14.0-0.0-1.1","60143a1a222eb43daf203877","619531dcf66c91622fa1b861","619595f2226b3fea0d3ebd83","2636","","s","true","[[159,35],[13,212],[35,440],[212,586],[440,564],[586,387],[564,159],[387,13]]","false","8","main_T2_Trial","s","img/Fire_Down_Target.gif","[""img/Fire_Up_Distractor.gif"",""img/Fire_Up_Distractor.gif"",""img/Fire_Up_Distractor.gif"",""img/Fire_Up_Distractor.gif"",""img/Fire_Up_Distractor.gif"",""img/Fire_Up_Distractor.gif"",""img/Fire_Up_Distractor.gif"",""img/Fire_Up_Distractor.gif"",""img/Fire_Up_Distractor.gif"",""img/Fire_Up_Distractor.gif"",""img/Fire_Up_Distractor.gif"",""img/Fire_Up_Distractor.gif""]","8","targetDown_distractorsUp"
"","","","","","html-keyboard-response","18","658604","0.0-14.0-0.0-0.2","60143a1a222eb43daf203877","619531dcf66c91622fa1b861","619595f2226b3fea0d3ebd83","null","","null","","","","","main_T1_ITI","","","","",""
"","","","","","visual-search-circle","19","660541","0.0-14.0-0.0-1.2","60143a1a222eb43daf203877","619531dcf66c91622fa1b861","619595f2226b3fea0d3ebd83","921.5999999940395","","d","true","[[357,5],[132,51],[5,242],[51,467],[242,594],[467,548],[594,357],[548,132]]","true","8","main_T2_Trial","d","img/Fire_Down_Target.gif","[""img/Fire_Up_Distractor.gif"",""img/Fire_Up_Distractor.gif"",""img/Fire_Up_Distractor.gif"",""img/Fire_Up_Distractor.gif"",""img/Fire_Up_Distractor.gif"",""img/Fire_Up_Distractor.gif"",""img/Fire_Up_Distractor.gif"",""img/Fire_Up_Distractor.gif"",""img/Fire_Up_Distractor.gif"",""img/Fire_Up_Distractor.gif"",""img/Fire_Up_Distractor.gif"",""img/Fire_Up_Distractor.gif""]","8","targetDown_distractorsUp"
"","","","","","html-keyboard-response","20","660543","0.0-14.0-0.0-0.3","60143a1a222eb43daf203877","619531dcf66c91622fa1b861","619595f2226b3fea0d3ebd83","null","","null","","","","","main_T1_ITI","","","","",""
"","","","","","visual-search-circle","21","664527","0.0-14.0-0.0-1.3","60143a1a222eb43daf203877","619531dcf66c91622fa1b861","619595f2226b3fea0d3ebd83","2967.5","","d","true","[[159,564],[419,575],[589,378],[541,122],[311,0],[73,103],[5,355]]","true","7","main_T2_Trial","d","img/Fire_Down_Target.gif","[""img/Fire_Up_Distractor.gif"",""img/Fire_Up_Distractor.gif"",""img/Fire_Up_Distractor.gif"",""img/Fire_Up_Distractor.gif"",""img/Fire_Up_Distractor.gif"",""img/Fire_Up_Distractor.gif"",""img/Fire_Up_Distractor.gif"",""img/Fire_Up_Distractor.gif"",""img/Fire_Up_Distractor.gif"",""img/Fire_Up_Distractor.gif"",""img/Fire_Up_Distractor.gif"",""img/Fire_Up_Distractor.gif""]","7","targetDown_distractorsUp"
"","","","","","html-keyboard-response","22","664530","0.0-14.0-0.0-0.4","60143a1a222eb43daf203877","619531dcf66c91622fa1b861","619595f2226b3fea0d3ebd83","null","","null","","","","","main_T1_ITI","","","","",""
"","","","","","visual-search-circle","23","667120","0.0-14.0-0.0-1.4","60143a1a222eb43daf203877","619531dcf66c91622fa1b861","619595f2226b3fea0d3ebd83","1573.2999999970198","","s","true","[[500,522],[599,315],[522,99],[315,0],[99,77],[0,284],[77,500],[284,599]]","false","8","main_T2_Trial","s","img/Fire_Up_Target.gif","[""img/Fire_Down_Distractor.gif"",""img/Fire_Down_Distractor.gif"",""img/Fire_Down_Distractor.gif"",""img/Fire_Down_Distractor.gif"",""img/Fire_Down_Distractor.gif"",""img/Fire_Down_Distractor.gif"",""img/Fire_Down_Distractor.gif"",""img/Fire_Down_Distractor.gif"",""img/Fire_Down_Distractor.gif"",""img/Fire_Down_Distractor.gif"",""img/Fire_Down_Distractor.gif"",""img/Fire_Down_Distractor.gif""]","8","targetUp_distractorsDown"
"","","","","","html-keyboard-response","24","667122","0.0-14.0-0.0-0.5","60143a1a222eb43daf203877","619531dcf66c91622fa1b861","619595f2226b3fea0d3ebd83","null","","null","","","","","main_T1_ITI","","","","",""
"","","","","","visual-search-circle","25","669684","0.0-14.0-0.0-1.5","60143a1a222eb43daf203877","619531dcf66c91622fa1b861","619595f2226b3fea0d3ebd83","1544.199999988079","","s","true","[[458,45],[232,7],[45,141],[7,367],[141,554],[367,592],[554,458],[592,232]]","false","8","main_T2_Trial","s","img/Fire_Up_Target.gif","[""img/Fire_Down_Distractor.gif"",""img/Fire_Down_Distractor.gif"",""img/Fire_Down_Distractor.gif"",""img/Fire_Down_Distractor.gif"",""img/Fire_Down_Distractor.gif"",""img/Fire_Down_Distractor.gif"",""img/Fire_Down_Distractor.gif"",""img/Fire_Down_Distractor.gif"",""img/Fire_Down_Distractor.gif"",""img/Fire_Down_Distractor.gif"",""img/Fire_Down_Distractor.gif"",""img/Fire_Down_Distractor.gif""]","8","targetUp_distractorsDown"
"","","","","","html-keyboard-response","26","669686","0.0-14.0-0.0-0.6","60143a1a222eb43daf203877","619531dcf66c91622fa1b861","619595f2226b3fea0d3ebd83","null","","null","","","","","main_T1_ITI","","","","",""
"","","","","","visual-search-circle","27","675006","0.0-14.0-0.0-1.6","60143a1a222eb43daf203877","619531dcf66c91622fa1b861","619595f2226b3fea0d3ebd83","4304","","s","true","[[57,476],[392,585],[600,300],[392,14],[57,123]]","false","5","main_T2_Trial","s","img/Fire_Up_Target.gif","[""img/Fire_Down_Distractor.gif"",""img/Fire_Down_Distractor.gif"",""img/Fire_Down_Distractor.gif"",""img/Fire_Down_Distractor.gif"",""img/Fire_Down_Distractor.gif"",""img/Fire_Down_Distractor.gif"",""img/Fire_Down_Distractor.gif"",""img/Fire_Down_Distractor.gif"",""img/Fire_Down_Distractor.gif"",""img/Fire_Down_Distractor.gif"",""img/Fire_Down_Distractor.gif"",""img/Fire_Down_Distractor.gif""]","5","targetUp_distractorsDown"
"","","","","","html-keyboard-response","28","675008","0.0-14.0-0.0-0.7","60143a1a222eb43daf203877","619531dcf66c91622fa1b861","619595f2226b3fea0d3ebd83","null","","null","","","","","main_T1_ITI","","","","",""
"","","","","","visual-search-circle","29","678216","0.0-14.0-0.0-1.7","60143a1a222eb43daf203877","619531dcf66c91622fa1b861","619595f2226b3fea0d3ebd83","2203.7999999970198","","d","true","[[480,60],[127,54],[13,387],[294,599],[583,397]]","true","5","main_T2_Trial","d","img/Fire_Up_Target.gif","[""img/Fire_Down_Distractor.gif"",""img/Fire_Down_Distractor.gif"",""img/Fire_Down_Distractor.gif"",""img/Fire_Down_Distractor.gif"",""img/Fire_Down_Distractor.gif"",""img/Fire_Down_Distractor.gif"",""img/Fire_Down_Distractor.gif"",""img/Fire_Down_Distractor.gif"",""img/Fire_Down_Distractor.gif"",""img/Fire_Down_Distractor.gif"",""img/Fire_Down_Distractor.gif"",""img/Fire_Down_Distractor.gif""]","5","targetUp_distractorsDown"
"","","","","","html-keyboard-response","30","678222","0.0-14.0-0.0-0.8","60143a1a222eb43daf203877","619531dcf66c91622fa1b861","619595f2226b3fea0d3ebd83","null","","null","","","","","main_T1_ITI","","","","",""
"","","","","","visual-search-circle","31","683819","0.0-14.0-0.0-1.8","60143a1a222eb43daf203877","619531dcf66c91622fa1b861","619595f2226b3fea0d3ebd83","4585.20000000298","","s","true","[[227,591],[482,538],[599,305],[491,69],[239,6],[32,164],[27,424]]","false","7","main_T2_Trial","s","img/Fire_Down_Target.gif","[""img/Fire_Up_Distractor.gif"",""img/Fire_Up_Distractor.gif"",""img/Fire_Up_Distractor.gif"",""img/Fire_Up_Distractor.gif"",""img/Fire_Up_Distractor.gif"",""img/Fire_Up_Distractor.gif"",""img/Fire_Up_Distractor.gif"",""img/Fire_Up_Distractor.gif"",""img/Fire_Up_Distractor.gif"",""img/Fire_Up_Distractor.gif"",""img/Fire_Up_Distractor.gif"",""img/Fire_Up_Distractor.gif""]","7","targetDown_distractorsUp"
"","","","","","html-keyboard-response","32","683822","0.0-14.0-0.0-0.9","60143a1a222eb43daf203877","619531dcf66c91622fa1b861","619595f2226b3fea0d3ebd83","null","","null","","","","","main_T1_ITI","","","","",""
"","","","","","visual-search-circle","33","685808","0.0-14.0-0.0-1.9","60143a1a222eb43daf203877","619531dcf66c91622fa1b861","619595f2226b3fea0d3ebd83","971.7000000029802","","d","true","[[0,320],[227,591],[554,458],[529,107],[187,21]]","true","5","main_T2_Trial","d","img/Fire_Down_Target.gif","[""img/Fire_Up_Distractor.gif"",""img/Fire_Up_Distractor.gif"",""img/Fire_Up_Distractor.gif"",""img/Fire_Up_Distractor.gif"",""img/Fire_Up_Distractor.gif"",""img/Fire_Up_Distractor.gif"",""img/Fire_Up_Distractor.gif"",""img/Fire_Up_Distractor.gif"",""img/Fire_Up_Distractor.gif"",""img/Fire_Up_Distractor.gif"",""img/Fire_Up_Distractor.gif"",""img/Fire_Up_Distractor.gif""]","5","targetDown_distractorsUp"
"","","","","","html-keyboard-response","34","685810","0.0-14.0-0.0-0.10","60143a1a222eb43daf203877","619531dcf66c91622fa1b861","619595f2226b3fea0d3ebd83","null","","null","","","","","main_T1_ITI","","","","",""
"","","","","","visual-search-circle","35","692349","0.0-14.0-0.0-1.10","60143a1a222eb43daf203877","619531dcf66c91622fa1b861","619595f2226b3fea0d3ebd83","5536.0999999940395","","s","true","[[103,526],[354,595],[564,441],[575,181],[379,10],[123,57],[0,287]]","false","7","main_T2_Trial","s","img/Fire_Up_Target.gif","[""img/Fire_Down_Distractor.gif"",""img/Fire_Down_Distractor.gif"",""img/Fire_Down_Distractor.gif"",""img/Fire_Down_Distractor.gif"",""img/Fire_Down_Distractor.gif"",""img/Fire_Down_Distractor.gif"",""img/Fire_Down_Distractor.gif"",""img/Fire_Down_Distractor.gif"",""img/Fire_Down_Distractor.gif"",""img/Fire_Down_Distractor.gif"",""img/Fire_Down_Distractor.gif"",""img/Fire_Down_Distractor.gif""]","7","targetUp_distractorsDown"
"","","","","","html-keyboard-response","36","692351","0.0-14.0-0.0-0.11","60143a1a222eb43daf203877","619531dcf66c91622fa1b861","619595f2226b3fea0d3ebd83","null","","null","","","","","main_T1_ITI","","","","",""
"","","","","","visual-search-circle","37","698764","0.0-14.0-0.0-1.11","60143a1a222eb43daf203877","619531dcf66c91622fa1b861","619595f2226b3fea0d3ebd83","5398.79999999702","","d","true","[[242,594],[562,445],[519,95],[173,28],[2,336]]","true","5","main_T2_Trial","d","img/Fire_Up_Target.gif","[""img/Fire_Down_Distractor.gif"",""img/Fire_Down_Distractor.gif"",""img/Fire_Down_Distractor.gif"",""img/Fire_Down_Distractor.gif"",""img/Fire_Down_Distractor.gif"",""img/Fire_Down_Distractor.gif"",""img/Fire_Down_Distractor.gif"",""img/Fire_Down_Distractor.gif"",""img/Fire_Down_Distractor.gif"",""img/Fire_Down_Distractor.gif"",""img/Fire_Down_Distractor.gif"",""img/Fire_Down_Distractor.gif""]","5","targetUp_distractorsDown"
"","","","","","html-keyboard-response","38","698766","0.0-14.0-0.0-0.12","60143a1a222eb43daf203877","619531dcf66c91622fa1b861","619595f2226b3fea0d3ebd83","null","","null","","","","","main_T1_ITI","","","","",""
"","","","","","visual-search-circle","39","701306","0.0-14.0-0.0-1.12","60143a1a222eb43daf203877","619531dcf66c91622fa1b861","619595f2226b3fea0d3ebd83","1524.5","","d","true","[[87,512],[377,589],[589,377],[512,87],[222,10],[10,222]]","true","6","main_T2_Trial","d","img/Fire_Down_Target.gif","[""img/Fire_Up_Distractor.gif"",""img/Fire_Up_Distractor.gif"",""img/Fire_Up_Distractor.gif"",""img/Fire_Up_Distractor.gif"",""img/Fire_Up_Distractor.gif"",""img/Fire_Up_Distractor.gif"",""img/Fire_Up_Distractor.gif"",""img/Fire_Up_Distractor.gif"",""img/Fire_Up_Distractor.gif"",""img/Fire_Up_Distractor.gif"",""img/Fire_Up_Distractor.gif"",""img/Fire_Up_Distractor.gif""]","6","targetDown_distractorsUp"
"","","","","","html-keyboard-response","40","701307","0.0-14.0-0.0-0.13","60143a1a222eb43daf203877","619531dcf66c91622fa1b861","619595f2226b3fea0d3ebd83","null","","null","","","","","main_T1_ITI","","","","",""
"","","","","","visual-search-circle","41","717565","0.0-14.0-0.0-1.13","60143a1a222eb43daf203877","619531dcf66c91622fa1b861","619595f2226b3fea0d3ebd83","15240","","s","true","[[258,2],[21,187],[63,484],[341,597],[578,412],[536,115]]","false","6","main_T2_Trial","s","img/Fire_Down_Target.gif","[""img/Fire_Up_Distractor.gif"",""img/Fire_Up_Distractor.gif"",""img/Fire_Up_Distractor.gif"",""img/Fire_Up_Distractor.gif"",""img/Fire_Up_Distractor.gif"",""img/Fire_Up_Distractor.gif"",""img/Fire_Up_Distractor.gif"",""img/Fire_Up_Distractor.gif"",""img/Fire_Up_Distractor.gif"",""img/Fire_Up_Distractor.gif"",""img/Fire_Up_Distractor.gif"",""img/Fire_Up_Distractor.gif""]","6","targetDown_distractorsUp"
"","","","","","html-keyboard-response","42","717567","0.0-14.0-0.0-0.14","60143a1a222eb43daf203877","619531dcf66c91622fa1b861","619595f2226b3fea0d3ebd83","null","","null","","","","","main_T1_ITI","","","","",""
"","","","","","visual-search-circle","43","719877","0.0-14.0-0.0-1.14","60143a1a222eb43daf203877","619531dcf66c91622fa1b861","619595f2226b3fea0d3ebd83","1291.0999999940395","","s","true","[[30,168],[51,467],[320,599],[569,431],[548,132],[279,0]]","false","6","main_T2_Trial","s","img/Fire_Down_Target.gif","[""img/Fire_Up_Distractor.gif"",""img/Fire_Up_Distractor.gif"",""img/Fire_Up_Distractor.gif"",""img/Fire_Up_Distractor.gif"",""img/Fire_Up_Distractor.gif"",""img/Fire_Up_Distractor.gif"",""img/Fire_Up_Distractor.gif"",""img/Fire_Up_Distractor.gif"",""img/Fire_Up_Distractor.gif"",""img/Fire_Up_Distractor.gif"",""img/Fire_Up_Distractor.gif"",""img/Fire_Up_Distractor.gif""]","6","targetDown_distractorsUp"
"","","","","","html-keyboard-response","44","719878","0.0-14.0-0.0-0.15","60143a1a222eb43daf203877","619531dcf66c91622fa1b861","619595f2226b3fea0d3ebd83","null","","null","","","","","main_T1_ITI","","","","",""
"","","","","","visual-search-circle","45","722161","0.0-14.0-0.0-1.15","60143a1a222eb43daf203877","619531dcf66c91622fa1b861","619595f2226b3fea0d3ebd83","1277.5999999940395","","d","true","[[35,159],[159,564],[564,440],[440,35]]","true","4","main_T2_Trial","d","img/Fire_Up_Target.gif","[""img/Fire_Down_Distractor.gif"",""img/Fire_Down_Distractor.gif"",""img/Fire_Down_Distractor.gif"",""img/Fire_Down_Distractor.gif"",""img/Fire_Down_Distractor.gif"",""img/Fire_Down_Distractor.gif"",""img/Fire_Down_Distractor.gif"",""img/Fire_Down_Distractor.gif"",""img/Fire_Down_Distractor.gif"",""img/Fire_Down_Distractor.gif"",""img/Fire_Down_Distractor.gif"",""img/Fire_Down_Distractor.gif""]","4","targetUp_distractorsDown"
"","","","","","html-keyboard-response","46","722163","0.0-14.0-0.0-0.16","60143a1a222eb43daf203877","619531dcf66c91622fa1b861","619595f2226b3fea0d3ebd83","null","","null","","","","","main_T1_ITI","","","","",""
"","","","","","visual-search-circle","47","724768","0.0-14.0-0.0-1.16","60143a1a222eb43daf203877","619531dcf66c91622fa1b861","619595f2226b3fea0d3ebd83","1588.3999999910593","","d","true","[[571,426],[581,197],[426,28],[197,18],[28,173],[18,402],[173,571],[402,581]]","true","8","main_T2_Trial","d","img/Fire_Down_Target.gif","[""img/Fire_Up_Distractor.gif"",""img/Fire_Up_Distractor.gif"",""img/Fire_Up_Distractor.gif"",""img/Fire_Up_Distractor.gif"",""img/Fire_Up_Distractor.gif"",""img/Fire_Up_Distractor.gif"",""img/Fire_Up_Distractor.gif"",""img/Fire_Up_Distractor.gif"",""img/Fire_Up_Distractor.gif"",""img/Fire_Up_Distractor.gif"",""img/Fire_Up_Distractor.gif"",""img/Fire_Up_Distractor.gif""]","8","targetDown_distractorsUp"
"","","","","","html-keyboard-response","48","724769","0.0-14.0-0.0-0.17","60143a1a222eb43daf203877","619531dcf66c91622fa1b861","619595f2226b3fea0d3ebd83","null","","null","","","","","main_T1_ITI","","","","",""
"","","","","","visual-search-circle","49","733667","0.0-14.0-0.0-1.17","60143a1a222eb43daf203877","619531dcf66c91622fa1b861","619595f2226b3fea0d3ebd83","7893.699999988079","","s","true","[[594,242],[336,2],[28,173],[95,519],[445,562]]","false","5","main_T2_Trial","s","img/Fire_Up_Target.gif","[""img/Fire_Down_Distractor.gif"",""img/Fire_Down_Distractor.gif"",""img/Fire_Down_Distractor.gif"",""img/Fire_Down_Distractor.gif"",""img/Fire_Down_Distractor.gif"",""img/Fire_Down_Distractor.gif"",""img/Fire_Down_Distractor.gif"",""img/Fire_Down_Distractor.gif"",""img/Fire_Down_Distractor.gif"",""img/Fire_Down_Distractor.gif"",""img/Fire_Down_Distractor.gif"",""img/Fire_Down_Distractor.gif""]","5","targetUp_distractorsDown"
"","","","","","html-keyboard-response","50","733670","0.0-14.0-0.0-0.18","60143a1a222eb43daf203877","619531dcf66c91622fa1b861","619595f2226b3fea0d3ebd83","null","","null","","","","","main_T1_ITI","","","","",""
"","","","","","visual-search-circle","51","737354","0.0-14.0-0.0-1.18","60143a1a222eb43daf203877","619531dcf66c91622fa1b861","619595f2226b3fea0d3ebd83","2671.7000000029802","","d","true","[[515,91],[91,84],[84,508],[508,515]]","true","4","main_T2_Trial","d","img/Fire_Up_Target.gif","[""img/Fire_Down_Distractor.gif"",""img/Fire_Down_Distractor.gif"",""img/Fire_Down_Distractor.gif"",""img/Fire_Down_Distractor.gif"",""img/Fire_Down_Distractor.gif"",""img/Fire_Down_Distractor.gif"",""img/Fire_Down_Distractor.gif"",""img/Fire_Down_Distractor.gif"",""img/Fire_Down_Distractor.gif"",""img/Fire_Down_Distractor.gif"",""img/Fire_Down_Distractor.gif"",""img/Fire_Down_Distractor.gif""]","4","targetUp_distractorsDown"
"","","","","","html-keyboard-response","52","741258","0.0-14.0-0.0-0.19","60143a1a222eb43daf203877","619531dcf66c91622fa1b861","619595f2226b3fea0d3ebd83","3904.1000000089407","Wow! You've completed 20 out of 160 trials! </p> <p>  </p><p> Take a quick break, then press any key when you're ready to continue.","d","","","","","main_T1_ITI","","","","",""
"","","","","","visual-search-circle","53","747339","0.0-14.0-0.0-1.19","60143a1a222eb43daf203877","619531dcf66c91622fa1b861","619595f2226b3fea0d3ebd83","5061","","s","true","[[54,127],[4,352],[127,545],[352,595],[545,472],[595,247],[472,54],[247,4]]","false","8","main_T2_Trial","s","img/Fire_Down_Target.gif","[""img/Fire_Up_Distractor.gif"",""img/Fire_Up_Distractor.gif"",""img/Fire_Up_Distractor.gif"",""img/Fire_Up_Distractor.gif"",""img/Fire_Up_Distractor.gif"",""img/Fire_Up_Distractor.gif"",""img/Fire_Up_Distractor.gif"",""img/Fire_Up_Distractor.gif"",""img/Fire_Up_Distractor.gif"",""img/Fire_Up_Distractor.gif"",""img/Fire_Up_Distractor.gif"",""img/Fire_Up_Distractor.gif""]","8","targetDown_distractorsUp"
"","","","","","html-keyboard-response","54","747341","0.0-14.0-0.0-0.20","60143a1a222eb43daf203877","619531dcf66c91622fa1b861","619595f2226b3fea0d3ebd83","null","","null","","","","","main_T1_ITI","","","","",""
"","","","","","visual-search-circle","55","750638","0.0-14.0-0.0-1.20","60143a1a222eb43daf203877","619531dcf66c91622fa1b861","619595f2226b3fea0d3ebd83","2280.0999999940395","","s","true","[[163,567],[463,551],[599,284],[436,32],[136,48],[0,315]]","false","6","main_T2_Trial","s","img/Fire_Up_Target.gif","[""img/Fire_Down_Distractor.gif"",""img/Fire_Down_Distractor.gif"",""img/Fire_Down_Distractor.gif"",""img/Fire_Down_Distractor.gif"",""img/Fire_Down_Distractor.gif"",""img/Fire_Down_Distractor.gif"",""img/Fire_Down_Distractor.gif"",""img/Fire_Down_Distractor.gif"",""img/Fire_Down_Distractor.gif"",""img/Fire_Down_Distractor.gif"",""img/Fire_Down_Distractor.gif"",""img/Fire_Down_Distractor.gif""]","6","targetUp_distractorsDown"
"","","","","","html-keyboard-response","56","750640","0.0-14.0-0.0-0.21","60143a1a222eb43daf203877","619531dcf66c91622fa1b861","619595f2226b3fea0d3ebd83","null","","null","","","","","main_T1_ITI","","","","",""
"","","","","","visual-search-circle","57","752382","0.0-14.0-0.0-1.21","60143a1a222eb43daf203877","619531dcf66c91622fa1b861","619595f2226b3fea0d3ebd83","730.7999999970198","","d","false","[[87,512],[377,589],[589,377],[512,87],[222,10],[10,222]]","false","6","main_T2_Trial","s","img/Fire_Up_Target.gif","[""img/Fire_Down_Distractor.gif"",""img/Fire_Down_Distractor.gif"",""img/Fire_Down_Distractor.gif"",""img/Fire_Down_Distractor.gif"",""img/Fire_Down_Distractor.gif"",""img/Fire_Down_Distractor.gif"",""img/Fire_Down_Distractor.gif"",""img/Fire_Down_Distractor.gif"",""img/Fire_Down_Distractor.gif"",""img/Fire_Down_Distractor.gif"",""img/Fire_Down_Distractor.gif"",""img/Fire_Down_Distractor.gif""]","6","targetUp_distractorsDown"
"","","","","","html-keyboard-response","58","752383","0.0-14.0-0.0-0.22","60143a1a222eb43daf203877","619531dcf66c91622fa1b861","619595f2226b3fea0d3ebd83","null","","null","","","","","main_T1_ITI","","","","",""
"","","","","","visual-search-circle","59","754591","0.0-14.0-0.0-1.22","60143a1a222eb43daf203877","619531dcf66c91622fa1b861","619595f2226b3fea0d3ebd83","1200.199999988079","","s","true","[[11,217],[84,508],[372,591],[588,382],[515,91],[227,8]]","false","6","main_T2_Trial","s","img/Fire_Down_Target.gif","[""img/Fire_Up_Distractor.gif"",""img/Fire_Up_Distractor.gif"",""img/Fire_Up_Distractor.gif"",""img/Fire_Up_Distractor.gif"",""img/Fire_Up_Distractor.gif"",""img/Fire_Up_Distractor.gif"",""img/Fire_Up_Distractor.gif"",""img/Fire_Up_Distractor.gif"",""img/Fire_Up_Distractor.gif"",""img/Fire_Up_Distractor.gif"",""img/Fire_Up_Distractor.gif"",""img/Fire_Up_Distractor.gif""]","6","targetDown_distractorsUp"
"","","","","","html-keyboard-response","60","754593","0.0-14.0-0.0-0.23","60143a1a222eb43daf203877","619531dcf66c91622fa1b861","619595f2226b3fea0d3ebd83","null","","null","","","","","main_T1_ITI","","","","",""
"","","","","","visual-search-circle","61","756658","0.0-14.0-0.0-1.23","60143a1a222eb43daf203877","619531dcf66c91622fa1b861","619595f2226b3fea0d3ebd83","1047.2999999970198","","d","true","[[242,594],[594,357],[357,5],[5,242]]","true","4","main_T2_Trial","d","img/Fire_Down_Target.gif","[""img/Fire_Up_Distractor.gif"",""img/Fire_Up_Distractor.gif"",""img/Fire_Up_Distractor.gif"",""img/Fire_Up_Distractor.gif"",""img/Fire_Up_Distractor.gif"",""img/Fire_Up_Distractor.gif"",""img/Fire_Up_Distractor.gif"",""img/Fire_Up_Distractor.gif"",""img/Fire_Up_Distractor.gif"",""img/Fire_Up_Distractor.gif"",""img/Fire_Up_Distractor.gif"",""img/Fire_Up_Distractor.gif""]","4","targetDown_distractorsUp"
"","","","","","html-keyboard-response","62","756659","0.0-14.0-0.0-0.24","60143a1a222eb43daf203877","619531dcf66c91622fa1b861","619595f2226b3fea0d3ebd83","null","","null","","","","","main_T1_ITI","","","","",""
"","","","","","visual-search-circle","63","759820","0.0-14.0-0.0-1.24","60143a1a222eb43daf203877","619531dcf66c91622fa1b861","619595f2226b3fea0d3ebd83","2157","","d","true","[[263,597],[510,514],[598,269],[462,47],[203,15],[17,198],[44,457]]","true","7","main_T2_Trial","d","img/Fire_Down_Target.gif","[""img/Fire_Up_Distractor.gif"",""img/Fire_Up_Distractor.gif"",""img/Fire_Up_Distractor.gif"",""img/Fire_Up_Distractor.gif"",""img/Fire_Up_Distractor.gif"",""img/Fire_Up_Distractor.gif"",""img/Fire_Up_Distractor.gif"",""img/Fire_Up_Distractor.gif"",""img/Fire_Up_Distractor.gif"",""img/Fire_Up_Distractor.gif"",""img/Fire_Up_Distractor.gif"",""img/Fire_Up_Distractor.gif""]","7","targetDown_distractorsUp"
"","","","","","html-keyboard-response","64","759823","0.0-14.0-0.0-0.25","60143a1a222eb43daf203877","619531dcf66c91622fa1b861","619595f2226b3fea0d3ebd83","null","","null","","","","","main_T1_ITI","","","","",""
"","","","","","visual-search-circle","65","763179","0.0-14.0-0.0-1.25","60143a1a222eb43daf203877","619531dcf66c91622fa1b861","619595f2226b3fea0d3ebd83","2348.5","","d","false","[[6,362],[268,598],[574,422],[500,77],[150,40]]","false","5","main_T2_Trial","s","img/Fire_Up_Target.gif","[""img/Fire_Down_Distractor.gif"",""img/Fire_Down_Distractor.gif"",""img/Fire_Down_Distractor.gif"",""img/Fire_Down_Distractor.gif"",""img/Fire_Down_Distractor.gif"",""img/Fire_Down_Distractor.gif"",""img/Fire_Down_Distractor.gif"",""img/Fire_Down_Distractor.gif"",""img/Fire_Down_Distractor.gif"",""img/Fire_Down_Distractor.gif"",""img/Fire_Down_Distractor.gif"",""img/Fire_Down_Distractor.gif""]","5","targetUp_distractorsDown"
"","","","","","html-keyboard-response","66","763182","0.0-14.0-0.0-0.26","60143a1a222eb43daf203877","619531dcf66c91622fa1b861","619595f2226b3fea0d3ebd83","null","","null","","","","","main_T1_ITI","","","","",""
"","","","","","visual-search-circle","67","765405","0.0-14.0-0.0-1.26","60143a1a222eb43daf203877","619531dcf66c91622fa1b861","619595f2226b3fea0d3ebd83","1218.1000000089407","","d","true","[[2,258],[82,506],[325,598],[549,466],[585,208],[406,19],[147,41]]","true","7","main_T2_Trial","d","img/Fire_Up_Target.gif","[""img/Fire_Down_Distractor.gif"",""img/Fire_Down_Distractor.gif"",""img/Fire_Down_Distractor.gif"",""img/Fire_Down_Distractor.gif"",""img/Fire_Down_Distractor.gif"",""img/Fire_Down_Distractor.gif"",""img/Fire_Down_Distractor.gif"",""img/Fire_Down_Distractor.gif"",""img/Fire_Down_Distractor.gif"",""img/Fire_Down_Distractor.gif"",""img/Fire_Down_Distractor.gif"",""img/Fire_Down_Distractor.gif""]","7","targetUp_distractorsDown"
"","","","","","html-keyboard-response","68","765410","0.0-14.0-0.0-0.27","60143a1a222eb43daf203877","619531dcf66c91622fa1b861","619595f2226b3fea0d3ebd83","null","","null","","","","","main_T1_ITI","","","","",""
"","","","","","visual-search-circle","69","767844","0.0-14.0-0.0-1.27","60143a1a222eb43daf203877","619531dcf66c91622fa1b861","619595f2226b3fea0d3ebd83","1429.2999999970198","","d","true","[[472,545],[586,212],[305,0],[16,202],[119,539]]","true","5","main_T2_Trial","d","img/Fire_Up_Target.gif","[""img/Fire_Down_Distractor.gif"",""img/Fire_Down_Distractor.gif"",""img/Fire_Down_Distractor.gif"",""img/Fire_Down_Distractor.gif"",""img/Fire_Down_Distractor.gif"",""img/Fire_Down_Distractor.gif"",""img/Fire_Down_Distractor.gif"",""img/Fire_Down_Distractor.gif"",""img/Fire_Down_Distractor.gif"",""img/Fire_Down_Distractor.gif"",""img/Fire_Down_Distractor.gif"",""img/Fire_Down_Distractor.gif""]","5","targetUp_distractorsDown"
"","","","","","html-keyboard-response","70","767848","0.0-14.0-0.0-0.28","60143a1a222eb43daf203877","619531dcf66c91622fa1b861","619595f2226b3fea0d3ebd83","null","","null","","","","","main_T1_ITI","","","","",""
"","","","","","visual-search-circle","71","783987","0.0-14.0-0.0-1.28","60143a1a222eb43daf203877","619531dcf66c91622fa1b861","619595f2226b3fea0d3ebd83","15128.60000000894","","d","true","[[526,103],[287,0],[57,123],[10,379],[181,575],[441,564],[595,354]]","true","7","main_T2_Trial","d","img/Fire_Down_Target.gif","[""img/Fire_Up_Distractor.gif"",""img/Fire_Up_Distractor.gif"",""img/Fire_Up_Distractor.gif"",""img/Fire_Up_Distractor.gif"",""img/Fire_Up_Distractor.gif"",""img/Fire_Up_Distractor.gif"",""img/Fire_Up_Distractor.gif"",""img/Fire_Up_Distractor.gif"",""img/Fire_Up_Distractor.gif"",""img/Fire_Up_Distractor.gif"",""img/Fire_Up_Distractor.gif"",""img/Fire_Up_Distractor.gif""]","7","targetDown_distractorsUp"
"","","","","","html-keyboard-response","72","783989","0.0-14.0-0.0-0.29","60143a1a222eb43daf203877","619531dcf66c91622fa1b861","619595f2226b3fea0d3ebd83","null","","null","","","","","main_T1_ITI","","","","",""
"","","","","","visual-search-circle","73","789505","0.0-14.0-0.0-1.29","60143a1a222eb43daf203877","619531dcf66c91622fa1b861","619595f2226b3fea0d3ebd83","4505.300000011921","","d","true","[[273,598],[598,326],[326,1],[1,273]]","true","4","main_T2_Trial","d","img/Fire_Down_Target.gif","[""img/Fire_Up_Distractor.gif"",""img/Fire_Up_Distractor.gif"",""img/Fire_Up_Distractor.gif"",""img/Fire_Up_Distractor.gif"",""img/Fire_Up_Distractor.gif"",""img/Fire_Up_Distractor.gif"",""img/Fire_Up_Distractor.gif"",""img/Fire_Up_Distractor.gif"",""img/Fire_Up_Distractor.gif"",""img/Fire_Up_Distractor.gif"",""img/Fire_Up_Distractor.gif"",""img/Fire_Up_Distractor.gif""]","4","targetDown_distractorsUp"
"","","","","","html-keyboard-response","74","789506","0.0-14.0-0.0-0.30","60143a1a222eb43daf203877","619531dcf66c91622fa1b861","619595f2226b3fea0d3ebd83","null","","null","","","","","main_T1_ITI","","","","",""
"","","","","","visual-search-circle","75","792677","0.0-14.0-0.0-1.30","60143a1a222eb43daf203877","619531dcf66c91622fa1b861","619595f2226b3fea0d3ebd83","2159.0999999940395","","s","true","[[268,598],[574,422],[500,77],[150,40],[6,362]]","false","5","main_T2_Trial","s","img/Fire_Down_Target.gif","[""img/Fire_Up_Distractor.gif"",""img/Fire_Up_Distractor.gif"",""img/Fire_Up_Distractor.gif"",""img/Fire_Up_Distractor.gif"",""img/Fire_Up_Distractor.gif"",""img/Fire_Up_Distractor.gif"",""img/Fire_Up_Distractor.gif"",""img/Fire_Up_Distractor.gif"",""img/Fire_Up_Distractor.gif"",""img/Fire_Up_Distractor.gif"",""img/Fire_Up_Distractor.gif"",""img/Fire_Up_Distractor.gif""]","5","targetDown_distractorsUp"
"","","","","","html-keyboard-response","76","792678","0.0-14.0-0.0-0.31","60143a1a222eb43daf203877","619531dcf66c91622fa1b861","619595f2226b3fea0d3ebd83","null","","null","","","","","main_T1_ITI","","","","",""
"","","","","","visual-search-circle","77","794861","0.0-14.0-0.0-1.31","60143a1a222eb43daf203877","619531dcf66c91622fa1b861","619595f2226b3fea0d3ebd83","1171","","d","true","[[522,99],[237,6],[14,207],[77,500],[362,593],[585,392]]","true","6","main_T2_Trial","d","img/Fire_Down_Target.gif","[""img/Fire_Up_Distractor.gif"",""img/Fire_Up_Distractor.gif"",""img/Fire_Up_Distractor.gif"",""img/Fire_Up_Distractor.gif"",""img/Fire_Up_Distractor.gif"",""img/Fire_Up_Distractor.gif"",""img/Fire_Up_Distractor.gif"",""img/Fire_Up_Distractor.gif"",""img/Fire_Up_Distractor.gif"",""img/Fire_Up_Distractor.gif"",""img/Fire_Up_Distractor.gif"",""img/Fire_Up_Distractor.gif""]","6","targetDown_distractorsUp"
"","","","","","html-keyboard-response","78","794862","0.0-14.0-0.0-0.32","60143a1a222eb43daf203877","619531dcf66c91622fa1b861","619595f2226b3fea0d3ebd83","null","","null","","","","","main_T1_ITI","","","","",""
"","","","","","visual-search-circle","79","800554","0.0-14.0-0.0-1.32","60143a1a222eb43daf203877","619531dcf66c91622fa1b861","619595f2226b3fea0d3ebd83","4688.5","","d","true","[[1,273],[273,598],[598,326],[326,1]]","true","4","main_T2_Trial","d","img/Fire_Up_Target.gif","[""img/Fire_Down_Distractor.gif"",""img/Fire_Down_Distractor.gif"",""img/Fire_Down_Distractor.gif"",""img/Fire_Down_Distractor.gif"",""img/Fire_Down_Distractor.gif"",""img/Fire_Down_Distractor.gif"",""img/Fire_Down_Distractor.gif"",""img/Fire_Down_Distractor.gif"",""img/Fire_Down_Distractor.gif"",""img/Fire_Down_Distractor.gif"",""img/Fire_Down_Distractor.gif"",""img/Fire_Down_Distractor.gif""]","4","targetUp_distractorsDown"
"","","","","","html-keyboard-response","80","800557","0.0-14.0-0.0-0.33","60143a1a222eb43daf203877","619531dcf66c91622fa1b861","619595f2226b3fea0d3ebd83","null","","null","","","","","main_T1_ITI","","","","",""
"","","","","","visual-search-circle","81","803095","0.0-14.0-0.0-1.33","60143a1a222eb43daf203877","619531dcf66c91622fa1b861","619595f2226b3fea0d3ebd83","1526.699999988079","","d","true","[[4,352],[127,545],[352,595],[545,472],[595,247],[472,54],[247,4],[54,127]]","true","8","main_T2_Trial","d","img/Fire_Up_Target.gif","[""img/Fire_Down_Distractor.gif"",""img/Fire_Down_Distractor.gif"",""img/Fire_Down_Distractor.gif"",""img/Fire_Down_Distractor.gif"",""img/Fire_Down_Distractor.gif"",""img/Fire_Down_Distractor.gif"",""img/Fire_Down_Distractor.gif"",""img/Fire_Down_Distractor.gif"",""img/Fire_Down_Distractor.gif"",""img/Fire_Down_Distractor.gif"",""img/Fire_Down_Distractor.gif"",""img/Fire_Down_Distractor.gif""]","8","targetUp_distractorsDown"
"","","","","","html-keyboard-response","82","803096","0.0-14.0-0.0-0.34","60143a1a222eb43daf203877","619531dcf66c91622fa1b861","619595f2226b3fea0d3ebd83","null","","null","","","","","main_T1_ITI","","","","",""
"","","","","","visual-search-circle","83","804938","0.0-14.0-0.0-1.34","60143a1a222eb43daf203877","619531dcf66c91622fa1b861","619595f2226b3fea0d3ebd83","828.0999999940395","","s","true","[[54,127],[12,384],[186,577],[446,561],[596,348],[522,98],[281,0]]","false","7","main_T2_Trial","s","img/Fire_Down_Target.gif","[""img/Fire_Up_Distractor.gif"",""img/Fire_Up_Distractor.gif"",""img/Fire_Up_Distractor.gif"",""img/Fire_Up_Distractor.gif"",""img/Fire_Up_Distractor.gif"",""img/Fire_Up_Distractor.gif"",""img/Fire_Up_Distractor.gif"",""img/Fire_Up_Distractor.gif"",""img/Fire_Up_Distractor.gif"",""img/Fire_Up_Distractor.gif"",""img/Fire_Up_Distractor.gif"",""img/Fire_Up_Distractor.gif""]","7","targetDown_distractorsUp"
"","","","","","html-keyboard-response","84","804940","0.0-14.0-0.0-0.35","60143a1a222eb43daf203877","619531dcf66c91622fa1b861","619595f2226b3fea0d3ebd83","null","","null","","","","","main_T1_ITI","","","","",""
"","","","","","visual-search-circle","85","807666","0.0-14.0-0.0-1.35","60143a1a222eb43daf203877","619531dcf66c91622fa1b861","619595f2226b3fea0d3ebd83","1709.0999999940395","","s","true","[[141,554],[399,582],[583,398],[553,139],[332,1],[87,88],[1,334]]","false","7","main_T2_Trial","s","img/Fire_Down_Target.gif","[""img/Fire_Up_Distractor.gif"",""img/Fire_Up_Distractor.gif"",""img/Fire_Up_Distractor.gif"",""img/Fire_Up_Distractor.gif"",""img/Fire_Up_Distractor.gif"",""img/Fire_Up_Distractor.gif"",""img/Fire_Up_Distractor.gif"",""img/Fire_Up_Distractor.gif"",""img/Fire_Up_Distractor.gif"",""img/Fire_Up_Distractor.gif"",""img/Fire_Up_Distractor.gif"",""img/Fire_Up_Distractor.gif""]","7","targetDown_distractorsUp"
"","","","","","html-keyboard-response","86","807669","0.0-14.0-0.0-0.36","60143a1a222eb43daf203877","619531dcf66c91622fa1b861","619595f2226b3fea0d3ebd83","null","","null","","","","","main_T1_ITI","","","","",""
"","","","","","visual-search-circle","87","810142","0.0-14.0-0.0-1.36","60143a1a222eb43daf203877","619531dcf66c91622fa1b861","619595f2226b3fea0d3ebd83","1462.4000000059605","","s","true","[[508,515],[599,305],[515,91],[305,0],[91,84],[0,294],[84,508],[294,599]]","false","8","main_T2_Trial","s","img/Fire_Down_Target.gif","[""img/Fire_Up_Distractor.gif"",""img/Fire_Up_Distractor.gif"",""img/Fire_Up_Distractor.gif"",""img/Fire_Up_Distractor.gif"",""img/Fire_Up_Distractor.gif"",""img/Fire_Up_Distractor.gif"",""img/Fire_Up_Distractor.gif"",""img/Fire_Up_Distractor.gif"",""img/Fire_Up_Distractor.gif"",""img/Fire_Up_Distractor.gif"",""img/Fire_Up_Distractor.gif"",""img/Fire_Up_Distractor.gif""]","8","targetDown_distractorsUp"
"","","","","","html-keyboard-response","88","810145","0.0-14.0-0.0-0.37","60143a1a222eb43daf203877","619531dcf66c91622fa1b861","619595f2226b3fea0d3ebd83","null","","null","","","","","main_T1_ITI","","","","",""
"","","","","","visual-search-circle","89","812211","0.0-14.0-0.0-1.37","60143a1a222eb43daf203877","619531dcf66c91622fa1b861","619595f2226b3fea0d3ebd83","1057","","s","true","[[387,13],[13,212],[212,586],[586,387]]","false","4","main_T2_Trial","s","img/Fire_Down_Target.gif","[""img/Fire_Up_Distractor.gif"",""img/Fire_Up_Distractor.gif"",""img/Fire_Up_Distractor.gif"",""img/Fire_Up_Distractor.gif"",""img/Fire_Up_Distractor.gif"",""img/Fire_Up_Distractor.gif"",""img/Fire_Up_Distractor.gif"",""img/Fire_Up_Distractor.gif"",""img/Fire_Up_Distractor.gif"",""img/Fire_Up_Distractor.gif"",""img/Fire_Up_Distractor.gif"",""img/Fire_Up_Distractor.gif""]","4","targetDown_distractorsUp"
"","","","","","html-keyboard-response","90","812213","0.0-14.0-0.0-0.38","60143a1a222eb43daf203877","619531dcf66c91622fa1b861","619595f2226b3fea0d3ebd83","null","","null","","","","","main_T1_ITI","","","","",""
"","","","","","visual-search-circle","91","814755","0.0-14.0-0.0-1.38","60143a1a222eb43daf203877","619531dcf66c91622fa1b861","619595f2226b3fea0d3ebd83","1529.1000000089407","","d","true","[[331,598],[598,268],[268,1],[1,331]]","true","4","main_T2_Trial","d","img/Fire_Up_Target.gif","[""img/Fire_Down_Distractor.gif"",""img/Fire_Down_Distractor.gif"",""img/Fire_Down_Distractor.gif"",""img/Fire_Down_Distractor.gif"",""img/Fire_Down_Distractor.gif"",""img/Fire_Down_Distractor.gif"",""img/Fire_Down_Distractor.gif"",""img/Fire_Down_Distractor.gif"",""img/Fire_Down_Distractor.gif"",""img/Fire_Down_Distractor.gif"",""img/Fire_Down_Distractor.gif"",""img/Fire_Down_Distractor.gif""]","4","targetUp_distractorsDown"
"","","","","","html-keyboard-response","92","816041","0.0-14.0-0.0-0.39","60143a1a222eb43daf203877","619531dcf66c91622fa1b861","619595f2226b3fea0d3ebd83","1286.0999999940395","Wow! You've completed 40 out of 160 trials! </p> <p>  </p><p> Take a quick break, then press any key when you're ready to continue."," ","","","","","main_T1_ITI","","","","",""
"","","","","","visual-search-circle","93","820995","0.0-14.0-0.0-1.39","60143a1a222eb43daf203877","619531dcf66c91622fa1b861","619595f2226b3fea0d3ebd83","3943.4000000059605","","s","true","[[583,397],[526,103],[242,5],[16,202],[73,496],[357,594]]","false","6","main_T2_Trial","s","img/Fire_Up_Target.gif","[""img/Fire_Down_Distractor.gif"",""img/Fire_Down_Distractor.gif"",""img/Fire_Down_Distractor.gif"",""img/Fire_Down_Distractor.gif"",""img/Fire_Down_Distractor.gif"",""img/Fire_Down_Distractor.gif"",""img/Fire_Down_Distractor.gif"",""img/Fire_Down_Distractor.gif"",""img/Fire_Down_Distractor.gif"",""img/Fire_Down_Distractor.gif"",""img/Fire_Down_Distractor.gif"",""img/Fire_Down_Distractor.gif""]","6","targetUp_distractorsDown"
"","","","","","html-keyboard-response","94","820996","0.0-14.0-0.0-0.40","60143a1a222eb43daf203877","619531dcf66c91622fa1b861","619595f2226b3fea0d3ebd83","null","","null","","","","","main_T1_ITI","","","","",""
"","","","","","visual-search-circle","95","823130","0.0-14.0-0.0-1.40","60143a1a222eb43daf203877","619531dcf66c91622fa1b861","619595f2226b3fea0d3ebd83","1115.6000000089407","","s","true","[[10,222],[40,450],[222,589],[450,559],[589,377],[559,150],[377,10],[150,40]]","false","8","main_T2_Trial","s","img/Fire_Down_Target.gif","[""img/Fire_Up_Distractor.gif"",""img/Fire_Up_Distractor.gif"",""img/Fire_Up_Distractor.gif"",""img/Fire_Up_Distractor.gif"",""img/Fire_Up_Distractor.gif"",""img/Fire_Up_Distractor.gif"",""img/Fire_Up_Distractor.gif"",""img/Fire_Up_Distractor.gif"",""img/Fire_Up_Distractor.gif"",""img/Fire_Up_Distractor.gif"",""img/Fire_Up_Distractor.gif"",""img/Fire_Up_Distractor.gif""]","8","targetDown_distractorsUp"
"","","","","","html-keyboard-response","96","823131","0.0-14.0-0.0-0.41","60143a1a222eb43daf203877","619531dcf66c91622fa1b861","619595f2226b3fea0d3ebd83","null","","null","","","","","main_T1_ITI","","","","",""
"","","","","","visual-search-circle","97","824720","0.0-14.0-0.0-1.41","60143a1a222eb43daf203877","619531dcf66c91622fa1b861","619595f2226b3fea0d3ebd83","577.3999999910593","","d","true","[[576,182],[412,21],[182,23],[21,187],[23,417],[187,578],[417,576],[578,412]]","true","8","main_T2_Trial","d","img/Fire_Up_Target.gif","[""img/Fire_Down_Distractor.gif"",""img/Fire_Down_Distractor.gif"",""img/Fire_Down_Distractor.gif"",""img/Fire_Down_Distractor.gif"",""img/Fire_Down_Distractor.gif"",""img/Fire_Down_Distractor.gif"",""img/Fire_Down_Distractor.gif"",""img/Fire_Down_Distractor.gif"",""img/Fire_Down_Distractor.gif"",""img/Fire_Down_Distractor.gif"",""img/Fire_Down_Distractor.gif"",""img/Fire_Down_Distractor.gif""]","8","targetUp_distractorsDown"
"","","","","","html-keyboard-response","98","824722","0.0-14.0-0.0-0.42","60143a1a222eb43daf203877","619531dcf66c91622fa1b861","619595f2226b3fea0d3ebd83","null","","null","","","","","main_T1_ITI","","","","",""
"","","","","","visual-search-circle","99","826890","0.0-14.0-0.0-1.42","60143a1a222eb43daf203877","619531dcf66c91622fa1b861","619595f2226b3fea0d3ebd83","1164.5","","s","true","[[557,145],[145,42],[42,454],[454,557]]","false","4","main_T2_Trial","s","img/Fire_Up_Target.gif","[""img/Fire_Down_Distractor.gif"",""img/Fire_Down_Distractor.gif"",""img/Fire_Down_Distractor.gif"",""img/Fire_Down_Distractor.gif"",""img/Fire_Down_Distractor.gif"",""img/Fire_Down_Distractor.gif"",""img/Fire_Down_Distractor.gif"",""img/Fire_Down_Distractor.gif"",""img/Fire_Down_Distractor.gif"",""img/Fire_Down_Distractor.gif"",""img/Fire_Down_Distractor.gif"",""img/Fire_Down_Distractor.gif""]","4","targetUp_distractorsDown"
"","","","","","html-keyboard-response","100","826893","0.0-14.0-0.0-0.43","60143a1a222eb43daf203877","619531dcf66c91622fa1b861","619595f2226b3fea0d3ebd83","null","","null","","","","","main_T1_ITI","","","","",""
"","","","","","visual-search-circle","101","829046","0.0-14.0-0.0-1.43","60143a1a222eb43daf203877","619531dcf66c91622fa1b861","619595f2226b3fea0d3ebd83","1142.7000000029802","","s","true","[[591,227],[320,0],[21,187],[107,529],[458,554]]","false","5","main_T2_Trial","s","img/Fire_Up_Target.gif","[""img/Fire_Down_Distractor.gif"",""img/Fire_Down_Distractor.gif"",""img/Fire_Down_Distractor.gif"",""img/Fire_Down_Distractor.gif"",""img/Fire_Down_Distractor.gif"",""img/Fire_Down_Distractor.gif"",""img/Fire_Down_Distractor.gif"",""img/Fire_Down_Distractor.gif"",""img/Fire_Down_Distractor.gif"",""img/Fire_Down_Distractor.gif"",""img/Fire_Down_Distractor.gif"",""img/Fire_Down_Distractor.gif""]","5","targetUp_distractorsDown"
"","","","","","html-keyboard-response","102","829048","0.0-14.0-0.0-0.44","60143a1a222eb43daf203877","619531dcf66c91622fa1b861","619595f2226b3fea0d3ebd83","null","","null","","","","","main_T1_ITI","","","","",""
"","","","","","visual-search-circle","103","831009","0.0-14.0-0.0-1.44","60143a1a222eb43daf203877","619531dcf66c91622fa1b861","619595f2226b3fea0d3ebd83","946.2999999970198","","s","true","[[150,40],[6,362],[268,598],[574,422],[500,77]]","false","5","main_T2_Trial","s","img/Fire_Down_Target.gif","[""img/Fire_Up_Distractor.gif"",""img/Fire_Up_Distractor.gif"",""img/Fire_Up_Distractor.gif"",""img/Fire_Up_Distractor.gif"",""img/Fire_Up_Distractor.gif"",""img/Fire_Up_Distractor.gif"",""img/Fire_Up_Distractor.gif"",""img/Fire_Up_Distractor.gif"",""img/Fire_Up_Distractor.gif"",""img/Fire_Up_Distractor.gif"",""img/Fire_Up_Distractor.gif"",""img/Fire_Up_Distractor.gif""]","5","targetDown_distractorsUp"
"","","","","","html-keyboard-response","104","831011","0.0-14.0-0.0-0.45","60143a1a222eb43daf203877","619531dcf66c91622fa1b861","619595f2226b3fea0d3ebd83","null","","null","","","","","main_T1_ITI","","","","",""
"","","","","","visual-search-circle","105","834720","0.0-14.0-0.0-1.45","60143a1a222eb43daf203877","619531dcf66c91622fa1b861","619595f2226b3fea0d3ebd83","2694.2999999970198","","s","true","[[593,237],[331,1],[25,177],[99,522],[450,559]]","false","5","main_T2_Trial","s","img/Fire_Down_Target.gif","[""img/Fire_Up_Distractor.gif"",""img/Fire_Up_Distractor.gif"",""img/Fire_Up_Distractor.gif"",""img/Fire_Up_Distractor.gif"",""img/Fire_Up_Distractor.gif"",""img/Fire_Up_Distractor.gif"",""img/Fire_Up_Distractor.gif"",""img/Fire_Up_Distractor.gif"",""img/Fire_Up_Distractor.gif"",""img/Fire_Up_Distractor.gif"",""img/Fire_Up_Distractor.gif"",""img/Fire_Up_Distractor.gif""]","5","targetDown_distractorsUp"
"","","","","","html-keyboard-response","106","834723","0.0-14.0-0.0-0.46","60143a1a222eb43daf203877","619531dcf66c91622fa1b861","619595f2226b3fea0d3ebd83","null","","null","","","","","main_T1_ITI","","","","",""
"","","","","","visual-search-circle","107","836800","0.0-14.0-0.0-1.46","60143a1a222eb43daf203877","619531dcf66c91622fa1b861","619595f2226b3fea0d3ebd83","1071.5","","s","true","[[588,217],[445,37],[217,11],[37,154],[11,382],[154,562],[382,588],[562,445]]","false","8","main_T2_Trial","s","img/Fire_Up_Target.gif","[""img/Fire_Down_Distractor.gif"",""img/Fire_Down_Distractor.gif"",""img/Fire_Down_Distractor.gif"",""img/Fire_Down_Distractor.gif"",""img/Fire_Down_Distractor.gif"",""img/Fire_Down_Distractor.gif"",""img/Fire_Down_Distractor.gif"",""img/Fire_Down_Distractor.gif"",""img/Fire_Down_Distractor.gif"",""img/Fire_Down_Distractor.gif"",""img/Fire_Down_Distractor.gif"",""img/Fire_Down_Distractor.gif""]","8","targetUp_distractorsDown"
"","","","","","html-keyboard-response","108","836801","0.0-14.0-0.0-0.47","60143a1a222eb43daf203877","619531dcf66c91622fa1b861","619595f2226b3fea0d3ebd83","null","","null","","","","","main_T1_ITI","","","","",""
"","","","","","visual-search-circle","109","838717","0.0-14.0-0.0-1.47","60143a1a222eb43daf203877","619531dcf66c91622fa1b861","619595f2226b3fea0d3ebd83","912.2999999970198","","d","true","[[407,19],[66,111],[48,463],[377,589],[599,315]]","true","5","main_T2_Trial","d","img/Fire_Down_Target.gif","[""img/Fire_Up_Distractor.gif"",""img/Fire_Up_Distractor.gif"",""img/Fire_Up_Distractor.gif"",""img/Fire_Up_Distractor.gif"",""img/Fire_Up_Distractor.gif"",""img/Fire_Up_Distractor.gif"",""img/Fire_Up_Distractor.gif"",""img/Fire_Up_Distractor.gif"",""img/Fire_Up_Distractor.gif"",""img/Fire_Up_Distractor.gif"",""img/Fire_Up_Distractor.gif"",""img/Fire_Up_Distractor.gif""]","5","targetDown_distractorsUp"
"","","","","","html-keyboard-response","110","838718","0.0-14.0-0.0-0.48","60143a1a222eb43daf203877","619531dcf66c91622fa1b861","619595f2226b3fea0d3ebd83","null","","null","","","","","main_T1_ITI","","","","",""
"","","","","","visual-search-circle","111","840822","0.0-14.0-0.0-1.48","60143a1a222eb43daf203877","619531dcf66c91622fa1b861","619595f2226b3fea0d3ebd83","1098.5","","s","true","[[35,440],[289,599],[554,458],[564,159],[310,0],[45,141]]","false","6","main_T2_Trial","s","img/Fire_Down_Target.gif","[""img/Fire_Up_Distractor.gif"",""img/Fire_Up_Distractor.gif"",""img/Fire_Up_Distractor.gif"",""img/Fire_Up_Distractor.gif"",""img/Fire_Up_Distractor.gif"",""img/Fire_Up_Distractor.gif"",""img/Fire_Up_Distractor.gif"",""img/Fire_Up_Distractor.gif"",""img/Fire_Up_Distractor.gif"",""img/Fire_Up_Distractor.gif"",""img/Fire_Up_Distractor.gif"",""img/Fire_Up_Distractor.gif""]","6","targetDown_distractorsUp"
"","","","","","html-keyboard-response","112","840823","0.0-14.0-0.0-0.49","60143a1a222eb43daf203877","619531dcf66c91622fa1b861","619595f2226b3fea0d3ebd83","null","","null","","","","","main_T1_ITI","","","","",""
"","","","","","visual-search-circle","113","845156","0.0-14.0-0.0-1.49","60143a1a222eb43daf203877","619531dcf66c91622fa1b861","619595f2226b3fea0d3ebd83","3321.7000000029802","","s","true","[[576,182],[182,23],[23,417],[417,576]]","false","4","main_T2_Trial","s","img/Fire_Up_Target.gif","[""img/Fire_Down_Distractor.gif"",""img/Fire_Down_Distractor.gif"",""img/Fire_Down_Distractor.gif"",""img/Fire_Down_Distractor.gif"",""img/Fire_Down_Distractor.gif"",""img/Fire_Down_Distractor.gif"",""img/Fire_Down_Distractor.gif"",""img/Fire_Down_Distractor.gif"",""img/Fire_Down_Distractor.gif"",""img/Fire_Down_Distractor.gif"",""img/Fire_Down_Distractor.gif"",""img/Fire_Down_Distractor.gif""]","4","targetUp_distractorsDown"
"","","","","","html-keyboard-response","114","845158","0.0-14.0-0.0-0.50","60143a1a222eb43daf203877","619531dcf66c91622fa1b861","619595f2226b3fea0d3ebd83","null","","null","","","","","main_T1_ITI","","","","",""
"","","","","","visual-search-circle","115","847019","0.0-14.0-0.0-1.50","60143a1a222eb43daf203877","619531dcf66c91622fa1b861","619595f2226b3fea0d3ebd83","846","","s","true","[[592,367],[367,7],[7,232],[232,592]]","false","4","main_T2_Trial","s","img/Fire_Up_Target.gif","[""img/Fire_Down_Distractor.gif"",""img/Fire_Down_Distractor.gif"",""img/Fire_Down_Distractor.gif"",""img/Fire_Down_Distractor.gif"",""img/Fire_Down_Distractor.gif"",""img/Fire_Down_Distractor.gif"",""img/Fire_Down_Distractor.gif"",""img/Fire_Down_Distractor.gif"",""img/Fire_Down_Distractor.gif"",""img/Fire_Down_Distractor.gif"",""img/Fire_Down_Distractor.gif"",""img/Fire_Down_Distractor.gif""]","4","targetUp_distractorsDown"
"","","","","","html-keyboard-response","116","847021","0.0-14.0-0.0-0.51","60143a1a222eb43daf203877","619531dcf66c91622fa1b861","619595f2226b3fea0d3ebd83","null","","null","","","","","main_T1_ITI","","","","",""
"","","","","","visual-search-circle","117","848948","0.0-14.0-0.0-1.51","60143a1a222eb43daf203877","619531dcf66c91622fa1b861","619595f2226b3fea0d3ebd83","911.2000000029802","","s","true","[[2,258],[168,569],[515,508],[564,159],[247,4]]","false","5","main_T2_Trial","s","img/Fire_Up_Target.gif","[""img/Fire_Down_Distractor.gif"",""img/Fire_Down_Distractor.gif"",""img/Fire_Down_Distractor.gif"",""img/Fire_Down_Distractor.gif"",""img/Fire_Down_Distractor.gif"",""img/Fire_Down_Distractor.gif"",""img/Fire_Down_Distractor.gif"",""img/Fire_Down_Distractor.gif"",""img/Fire_Down_Distractor.gif"",""img/Fire_Down_Distractor.gif"",""img/Fire_Down_Distractor.gif"",""img/Fire_Down_Distractor.gif""]","5","targetUp_distractorsDown"
"","","","","","html-keyboard-response","118","848950","0.0-14.0-0.0-0.52","60143a1a222eb43daf203877","619531dcf66c91622fa1b861","619595f2226b3fea0d3ebd83","null","","null","","","","","main_T1_ITI","","","","",""
"","","","","","visual-search-circle","119","850664","0.0-14.0-0.0-1.52","60143a1a222eb43daf203877","619531dcf66c91622fa1b861","619595f2226b3fea0d3ebd83","701.8999999910593","","s","true","[[597,258],[412,21],[115,63],[2,341],[187,578],[484,536]]","false","6","main_T2_Trial","s","img/Fire_Up_Target.gif","[""img/Fire_Down_Distractor.gif"",""img/Fire_Down_Distractor.gif"",""img/Fire_Down_Distractor.gif"",""img/Fire_Down_Distractor.gif"",""img/Fire_Down_Distractor.gif"",""img/Fire_Down_Distractor.gif"",""img/Fire_Down_Distractor.gif"",""img/Fire_Down_Distractor.gif"",""img/Fire_Down_Distractor.gif"",""img/Fire_Down_Distractor.gif"",""img/Fire_Down_Distractor.gif"",""img/Fire_Down_Distractor.gif""]","6","targetUp_distractorsDown"
"","","","","","html-keyboard-response","120","850667","0.0-14.0-0.0-0.53","60143a1a222eb43daf203877","619531dcf66c91622fa1b861","619595f2226b3fea0d3ebd83","null","","null","","","","","main_T1_ITI","","","","",""
"","","","","","visual-search-circle","121","852580","0.0-14.0-0.0-1.53","60143a1a222eb43daf203877","619531dcf66c91622fa1b861","619595f2226b3fea0d3ebd83","905.8999999910593","","d","true","[[66,488],[268,598],[488,533],[598,331],[533,111],[331,1],[111,66],[1,268]]","true","8","main_T2_Trial","d","img/Fire_Down_Target.gif","[""img/Fire_Up_Distractor.gif"",""img/Fire_Up_Distractor.gif"",""img/Fire_Up_Distractor.gif"",""img/Fire_Up_Distractor.gif"",""img/Fire_Up_Distractor.gif"",""img/Fire_Up_Distractor.gif"",""img/Fire_Up_Distractor.gif"",""img/Fire_Up_Distractor.gif"",""img/Fire_Up_Distractor.gif"",""img/Fire_Up_Distractor.gif"",""img/Fire_Up_Distractor.gif"",""img/Fire_Up_Distractor.gif""]","8","targetDown_distractorsUp"
"","","","","","html-keyboard-response","122","852581","0.0-14.0-0.0-0.54","60143a1a222eb43daf203877","619531dcf66c91622fa1b861","619595f2226b3fea0d3ebd83","null","","null","","","","","main_T1_ITI","","","","",""
"","","","","","visual-search-circle","123","854958","0.0-14.0-0.0-1.54","60143a1a222eb43daf203877","619531dcf66c91622fa1b861","619595f2226b3fea0d3ebd83","1360.7999999970198","","d","true","[[141,45],[8,372],[279,599],[578,412],[492,70]]","true","5","main_T2_Trial","d","img/Fire_Down_Target.gif","[""img/Fire_Up_Distractor.gif"",""img/Fire_Up_Distractor.gif"",""img/Fire_Up_Distractor.gif"",""img/Fire_Up_Distractor.gif"",""img/Fire_Up_Distractor.gif"",""img/Fire_Up_Distractor.gif"",""img/Fire_Up_Distractor.gif"",""img/Fire_Up_Distractor.gif"",""img/Fire_Up_Distractor.gif"",""img/Fire_Up_Distractor.gif"",""img/Fire_Up_Distractor.gif"",""img/Fire_Up_Distractor.gif""]","5","targetDown_distractorsUp"
"","","","","","html-keyboard-response","124","854960","0.0-14.0-0.0-0.55","60143a1a222eb43daf203877","619531dcf66c91622fa1b861","619595f2226b3fea0d3ebd83","null","","null","","","","","main_T1_ITI","","","","",""
"","","","","","visual-search-circle","125","857078","0.0-14.0-0.0-1.55","60143a1a222eb43daf203877","619531dcf66c91622fa1b861","619595f2226b3fea0d3ebd83","1106","","d","true","[[515,508],[508,84],[84,91],[91,515]]","true","4","main_T2_Trial","d","img/Fire_Down_Target.gif","[""img/Fire_Up_Distractor.gif"",""img/Fire_Up_Distractor.gif"",""img/Fire_Up_Distractor.gif"",""img/Fire_Up_Distractor.gif"",""img/Fire_Up_Distractor.gif"",""img/Fire_Up_Distractor.gif"",""img/Fire_Up_Distractor.gif"",""img/Fire_Up_Distractor.gif"",""img/Fire_Up_Distractor.gif"",""img/Fire_Up_Distractor.gif"",""img/Fire_Up_Distractor.gif"",""img/Fire_Up_Distractor.gif""]","4","targetDown_distractorsUp"
"","","","","","html-keyboard-response","126","857080","0.0-14.0-0.0-0.56","60143a1a222eb43daf203877","619531dcf66c91622fa1b861","619595f2226b3fea0d3ebd83","null","","null","","","","","main_T1_ITI","","","","",""
"","","","","","visual-search-circle","127","861126","0.0-14.0-0.0-1.56","60143a1a222eb43daf203877","619531dcf66c91622fa1b861","619595f2226b3fea0d3ebd83","3041.2000000029802","","s","true","[[182,576],[480,539],[597,263],[417,23],[119,60],[2,336]]","false","6","main_T2_Trial","s","img/Fire_Down_Target.gif","[""img/Fire_Up_Distractor.gif"",""img/Fire_Up_Distractor.gif"",""img/Fire_Up_Distractor.gif"",""img/Fire_Up_Distractor.gif"",""img/Fire_Up_Distractor.gif"",""img/Fire_Up_Distractor.gif"",""img/Fire_Up_Distractor.gif"",""img/Fire_Up_Distractor.gif"",""img/Fire_Up_Distractor.gif"",""img/Fire_Up_Distractor.gif"",""img/Fire_Up_Distractor.gif"",""img/Fire_Up_Distractor.gif""]","6","targetDown_distractorsUp"
"","","","","","html-keyboard-response","128","861127","0.0-14.0-0.0-0.57","60143a1a222eb43daf203877","619531dcf66c91622fa1b861","619595f2226b3fea0d3ebd83","null","","null","","","","","main_T1_ITI","","","","",""
"","","","","","visual-search-circle","129","863129","0.0-14.0-0.0-1.57","60143a1a222eb43daf203877","619531dcf66c91622fa1b861","619595f2226b3fea0d3ebd83","996.0999999940395","","d","true","[[326,598],[549,465],[585,208],[406,19],[146,42],[2,258],[82,506]]","true","7","main_T2_Trial","d","img/Fire_Up_Target.gif","[""img/Fire_Down_Distractor.gif"",""img/Fire_Down_Distractor.gif"",""img/Fire_Down_Distractor.gif"",""img/Fire_Down_Distractor.gif"",""img/Fire_Down_Distractor.gif"",""img/Fire_Down_Distractor.gif"",""img/Fire_Down_Distractor.gif"",""img/Fire_Down_Distractor.gif"",""img/Fire_Down_Distractor.gif"",""img/Fire_Down_Distractor.gif"",""img/Fire_Down_Distractor.gif"",""img/Fire_Down_Distractor.gif""]","7","targetUp_distractorsDown"
"","","","","","html-keyboard-response","130","863131","0.0-14.0-0.0-0.58","60143a1a222eb43daf203877","619531dcf66c91622fa1b861","619595f2226b3fea0d3ebd83","null","","null","","","","","main_T1_ITI","","","","",""
"","","","","","visual-search-circle","131","865009","0.0-14.0-0.0-1.58","60143a1a222eb43daf203877","619531dcf66c91622fa1b861","619595f2226b3fea0d3ebd83","874.5","","d","true","[[569,168],[258,2],[4,247],[159,564],[508,515]]","true","5","main_T2_Trial","d","img/Fire_Up_Target.gif","[""img/Fire_Down_Distractor.gif"",""img/Fire_Down_Distractor.gif"",""img/Fire_Down_Distractor.gif"",""img/Fire_Down_Distractor.gif"",""img/Fire_Down_Distractor.gif"",""img/Fire_Down_Distractor.gif"",""img/Fire_Down_Distractor.gif"",""img/Fire_Down_Distractor.gif"",""img/Fire_Down_Distractor.gif"",""img/Fire_Down_Distractor.gif"",""img/Fire_Down_Distractor.gif"",""img/Fire_Down_Distractor.gif""]","5","targetUp_distractorsDown"
"","","","","","html-keyboard-response","132","867939","0.0-14.0-0.0-0.59","60143a1a222eb43daf203877","619531dcf66c91622fa1b861","619595f2226b3fea0d3ebd83","2929.5","Wow! You've completed 60 out of 160 trials! </p> <p>  </p><p> Take a quick break, then press any key when you're ready to continue."," ","","","","","main_T1_ITI","","","","",""
"","","","","","visual-search-circle","133","870556","0.0-14.0-0.0-1.59","60143a1a222eb43daf203877","619531dcf66c91622fa1b861","619595f2226b3fea0d3ebd83","1605.2000000029802","","s","true","[[407,580],[586,390],[549,132],[324,1],[81,94],[3,342],[148,558]]","false","7","main_T2_Trial","s","img/Fire_Up_Target.gif","[""img/Fire_Down_Distractor.gif"",""img/Fire_Down_Distractor.gif"",""img/Fire_Down_Distractor.gif"",""img/Fire_Down_Distractor.gif"",""img/Fire_Down_Distractor.gif"",""img/Fire_Down_Distractor.gif"",""img/Fire_Down_Distractor.gif"",""img/Fire_Down_Distractor.gif"",""img/Fire_Down_Distractor.gif"",""img/Fire_Down_Distractor.gif"",""img/Fire_Down_Distractor.gif"",""img/Fire_Down_Distractor.gif""]","7","targetUp_distractorsDown"
"","","","","","html-keyboard-response","134","870559","0.0-14.0-0.0-0.60","60143a1a222eb43daf203877","619531dcf66c91622fa1b861","619595f2226b3fea0d3ebd83","null","","null","","","","","main_T1_ITI","","","","",""
"","","","","","visual-search-circle","135","872492","0.0-14.0-0.0-1.60","60143a1a222eb43daf203877","619531dcf66c91622fa1b861","619595f2226b3fea0d3ebd83","918.2000000029802","","s","true","[[23,417],[417,576],[576,182],[182,23]]","false","4","main_T2_Trial","s","img/Fire_Up_Target.gif","[""img/Fire_Down_Distractor.gif"",""img/Fire_Down_Distractor.gif"",""img/Fire_Down_Distractor.gif"",""img/Fire_Down_Distractor.gif"",""img/Fire_Down_Distractor.gif"",""img/Fire_Down_Distractor.gif"",""img/Fire_Down_Distractor.gif"",""img/Fire_Down_Distractor.gif"",""img/Fire_Down_Distractor.gif"",""img/Fire_Down_Distractor.gif"",""img/Fire_Down_Distractor.gif"",""img/Fire_Down_Distractor.gif""]","4","targetUp_distractorsDown"
"","","","","","html-keyboard-response","136","872493","0.0-14.0-0.0-0.61","60143a1a222eb43daf203877","619531dcf66c91622fa1b861","619595f2226b3fea0d3ebd83","null","","null","","","","","main_T1_ITI","","","","",""
"","","","","","visual-search-circle","137","874640","0.0-14.0-0.0-1.61","60143a1a222eb43daf203877","619531dcf66c91622fa1b861","619595f2226b3fea0d3ebd83","1142.5","","d","true","[[512,87],[300,0],[87,87],[0,299],[87,512],[299,600],[512,512],[600,300]]","true","8","main_T2_Trial","d","img/Fire_Down_Target.gif","[""img/Fire_Up_Distractor.gif"",""img/Fire_Up_Distractor.gif"",""img/Fire_Up_Distractor.gif"",""img/Fire_Up_Distractor.gif"",""img/Fire_Up_Distractor.gif"",""img/Fire_Up_Distractor.gif"",""img/Fire_Up_Distractor.gif"",""img/Fire_Up_Distractor.gif"",""img/Fire_Up_Distractor.gif"",""img/Fire_Up_Distractor.gif"",""img/Fire_Up_Distractor.gif"",""img/Fire_Up_Distractor.gif""]","8","targetDown_distractorsUp"
"","","","","","html-keyboard-response","138","874642","0.0-14.0-0.0-0.62","60143a1a222eb43daf203877","619531dcf66c91622fa1b861","619595f2226b3fea0d3ebd83","null","","null","","","","","main_T1_ITI","","","","",""
"","","","","","visual-search-circle","139","876580","0.0-14.0-0.0-1.62","60143a1a222eb43daf203877","619531dcf66c91622fa1b861","619595f2226b3fea0d3ebd83","927.2999999970198","","d","false","[[132,548],[548,467],[467,51],[51,132]]","false","4","main_T2_Trial","s","img/Fire_Up_Target.gif","[""img/Fire_Down_Distractor.gif"",""img/Fire_Down_Distractor.gif"",""img/Fire_Down_Distractor.gif"",""img/Fire_Down_Distractor.gif"",""img/Fire_Down_Distractor.gif"",""img/Fire_Down_Distractor.gif"",""img/Fire_Down_Distractor.gif"",""img/Fire_Down_Distractor.gif"",""img/Fire_Down_Distractor.gif"",""img/Fire_Down_Distractor.gif"",""img/Fire_Down_Distractor.gif"",""img/Fire_Down_Distractor.gif""]","4","targetUp_distractorsDown"
"","","","","","html-keyboard-response","140","876581","0.0-14.0-0.0-0.63","60143a1a222eb43daf203877","619531dcf66c91622fa1b861","619595f2226b3fea0d3ebd83","null","","null","","","","","main_T1_ITI","","","","",""
"","","","","","visual-search-circle","141","880498","0.0-14.0-0.0-1.63","60143a1a222eb43daf203877","619531dcf66c91622fa1b861","619595f2226b3fea0d3ebd83","2900.5999999940395","","d","true","[[598,273],[273,1],[1,326],[326,598]]","true","4","main_T2_Trial","d","img/Fire_Down_Target.gif","[""img/Fire_Up_Distractor.gif"",""img/Fire_Up_Distractor.gif"",""img/Fire_Up_Distractor.gif"",""img/Fire_Up_Distractor.gif"",""img/Fire_Up_Distractor.gif"",""img/Fire_Up_Distractor.gif"",""img/Fire_Up_Distractor.gif"",""img/Fire_Up_Distractor.gif"",""img/Fire_Up_Distractor.gif"",""img/Fire_Up_Distractor.gif"",""img/Fire_Up_Distractor.gif"",""img/Fire_Up_Distractor.gif""]","4","targetDown_distractorsUp"
"","","","","","html-keyboard-response","142","880499","0.0-14.0-0.0-0.64","60143a1a222eb43daf203877","619531dcf66c91622fa1b861","619595f2226b3fea0d3ebd83","null","","null","","","","","main_T1_ITI","","","","",""
"","","","","","visual-search-circle","143","882744","0.0-14.0-0.0-1.64","60143a1a222eb43daf203877","619531dcf66c91622fa1b861","619595f2226b3fea0d3ebd83","1238.2999999970198","","d","true","[[299,600],[534,487],[592,233],[430,29],[169,29],[7,233],[65,487]]","true","7","main_T2_Trial","d","img/Fire_Down_Target.gif","[""img/Fire_Up_Distractor.gif"",""img/Fire_Up_Distractor.gif"",""img/Fire_Up_Distractor.gif"",""img/Fire_Up_Distractor.gif"",""img/Fire_Up_Distractor.gif"",""img/Fire_Up_Distractor.gif"",""img/Fire_Up_Distractor.gif"",""img/Fire_Up_Distractor.gif"",""img/Fire_Up_Distractor.gif"",""img/Fire_Up_Distractor.gif"",""img/Fire_Up_Distractor.gif"",""img/Fire_Up_Distractor.gif""]","7","targetDown_distractorsUp"
"","","","","","html-keyboard-response","144","882747","0.0-14.0-0.0-0.65","60143a1a222eb43daf203877","619531dcf66c91622fa1b861","619595f2226b3fea0d3ebd83","null","","null","","","","","main_T1_ITI","","","","",""
"","","","","","visual-search-circle","145","884488","0.0-14.0-0.0-1.65","60143a1a222eb43daf203877","619531dcf66c91622fa1b861","619595f2226b3fea0d3ebd83","726.2000000029802","","d","true","[[557,145],[339,2],[92,83],[1,327],[135,550],[393,585],[581,404]]","true","7","main_T2_Trial","d","img/Fire_Down_Target.gif","[""img/Fire_Up_Distractor.gif"",""img/Fire_Up_Distractor.gif"",""img/Fire_Up_Distractor.gif"",""img/Fire_Up_Distractor.gif"",""img/Fire_Up_Distractor.gif"",""img/Fire_Up_Distractor.gif"",""img/Fire_Up_Distractor.gif"",""img/Fire_Up_Distractor.gif"",""img/Fire_Up_Distractor.gif"",""img/Fire_Up_Distractor.gif"",""img/Fire_Up_Distractor.gif"",""img/Fire_Up_Distractor.gif""]","7","targetDown_distractorsUp"
"","","","","","html-keyboard-response","146","884490","0.0-14.0-0.0-0.66","60143a1a222eb43daf203877","619531dcf66c91622fa1b861","619595f2226b3fea0d3ebd83","null","","null","","","","","main_T1_ITI","","","","",""
"","","","","","visual-search-circle","147","893106","0.0-14.0-0.0-1.66","60143a1a222eb43daf203877","619531dcf66c91622fa1b861","619595f2226b3fea0d3ebd83","7607.4000000059605","","d","true","[[45,458],[372,591],[599,320],[412,21],[70,107]]","true","5","main_T2_Trial","d","img/Fire_Down_Target.gif","[""img/Fire_Up_Distractor.gif"",""img/Fire_Up_Distractor.gif"",""img/Fire_Up_Distractor.gif"",""img/Fire_Up_Distractor.gif"",""img/Fire_Up_Distractor.gif"",""img/Fire_Up_Distractor.gif"",""img/Fire_Up_Distractor.gif"",""img/Fire_Up_Distractor.gif"",""img/Fire_Up_Distractor.gif"",""img/Fire_Up_Distractor.gif"",""img/Fire_Up_Distractor.gif"",""img/Fire_Up_Distractor.gif""]","5","targetDown_distractorsUp"
"","","","","","html-keyboard-response","148","893109","0.0-14.0-0.0-0.67","60143a1a222eb43daf203877","619531dcf66c91622fa1b861","619595f2226b3fea0d3ebd83","null","","null","","","","","main_T1_ITI","","","","",""
"","","","","","visual-search-circle","149","894905","0.0-14.0-0.0-1.67","60143a1a222eb43daf203877","619531dcf66c91622fa1b861","619595f2226b3fea0d3ebd83","782.7000000029802","","d","true","[[576,182],[273,1],[7,232],[145,557],[496,526]]","true","5","main_T2_Trial","d","img/Fire_Down_Target.gif","[""img/Fire_Up_Distractor.gif"",""img/Fire_Up_Distractor.gif"",""img/Fire_Up_Distractor.gif"",""img/Fire_Up_Distractor.gif"",""img/Fire_Up_Distractor.gif"",""img/Fire_Up_Distractor.gif"",""img/Fire_Up_Distractor.gif"",""img/Fire_Up_Distractor.gif"",""img/Fire_Up_Distractor.gif"",""img/Fire_Up_Distractor.gif"",""img/Fire_Up_Distractor.gif"",""img/Fire_Up_Distractor.gif""]","5","targetDown_distractorsUp"
"","","","","","html-keyboard-response","150","894912","0.0-14.0-0.0-0.68","60143a1a222eb43daf203877","619531dcf66c91622fa1b861","619595f2226b3fea0d3ebd83","null","","null","","","","","main_T1_ITI","","","","",""
"","","","","","visual-search-circle","151","897831","0.0-14.0-0.0-1.68","60143a1a222eb43daf203877","619531dcf66c91622fa1b861","619595f2226b3fea0d3ebd83","1908.0999999940395","","d","true","[[397,16],[60,119],[54,472],[387,586],[599,305]]","true","5","main_T2_Trial","d","img/Fire_Up_Target.gif","[""img/Fire_Down_Distractor.gif"",""img/Fire_Down_Distractor.gif"",""img/Fire_Down_Distractor.gif"",""img/Fire_Down_Distractor.gif"",""img/Fire_Down_Distractor.gif"",""img/Fire_Down_Distractor.gif"",""img/Fire_Down_Distractor.gif"",""img/Fire_Down_Distractor.gif"",""img/Fire_Down_Distractor.gif"",""img/Fire_Down_Distractor.gif"",""img/Fire_Down_Distractor.gif"",""img/Fire_Down_Distractor.gif""]","5","targetUp_distractorsDown"
"","","","","","html-keyboard-response","152","897832","0.0-14.0-0.0-0.69","60143a1a222eb43daf203877","619531dcf66c91622fa1b861","619595f2226b3fea0d3ebd83","null","","null","","","","","main_T1_ITI","","","","",""
"","","","","","visual-search-circle","153","900423","0.0-14.0-0.0-1.69","60143a1a222eb43daf203877","619531dcf66c91622fa1b861","619595f2226b3fea0d3ebd83","1586.7999999970198","","d","true","[[588,217],[372,8],[84,91],[11,382],[227,591],[515,508]]","true","6","main_T2_Trial","d","img/Fire_Up_Target.gif","[""img/Fire_Down_Distractor.gif"",""img/Fire_Down_Distractor.gif"",""img/Fire_Down_Distractor.gif"",""img/Fire_Down_Distractor.gif"",""img/Fire_Down_Distractor.gif"",""img/Fire_Down_Distractor.gif"",""img/Fire_Down_Distractor.gif"",""img/Fire_Down_Distractor.gif"",""img/Fire_Down_Distractor.gif"",""img/Fire_Down_Distractor.gif"",""img/Fire_Down_Distractor.gif"",""img/Fire_Down_Distractor.gif""]","6","targetUp_distractorsDown"
"","","","","","html-keyboard-response","154","900426","0.0-14.0-0.0-0.70","60143a1a222eb43daf203877","619531dcf66c91622fa1b861","619595f2226b3fea0d3ebd83","null","","null","","","","","main_T1_ITI","","","","",""
"","","","","","visual-search-circle","155","902477","0.0-14.0-0.0-1.70","60143a1a222eb43daf203877","619531dcf66c91622fa1b861","619595f2226b3fea0d3ebd83","1046.2000000029802","","d","true","[[377,589],[589,377],[512,87],[222,10],[10,222],[87,512]]","true","6","main_T2_Trial","d","img/Fire_Down_Target.gif","[""img/Fire_Up_Distractor.gif"",""img/Fire_Up_Distractor.gif"",""img/Fire_Up_Distractor.gif"",""img/Fire_Up_Distractor.gif"",""img/Fire_Up_Distractor.gif"",""img/Fire_Up_Distractor.gif"",""img/Fire_Up_Distractor.gif"",""img/Fire_Up_Distractor.gif"",""img/Fire_Up_Distractor.gif"",""img/Fire_Up_Distractor.gif"",""img/Fire_Up_Distractor.gif"",""img/Fire_Up_Distractor.gif""]","6","targetDown_distractorsUp"
"","","","","","html-keyboard-response","156","902479","0.0-14.0-0.0-0.71","60143a1a222eb43daf203877","619531dcf66c91622fa1b861","619595f2226b3fea0d3ebd83","null","","null","","","","","main_T1_ITI","","","","",""
"","","","","","visual-search-circle","157","905934","0.0-14.0-0.0-1.71","60143a1a222eb43daf203877","619531dcf66c91622fa1b861","619595f2226b3fea0d3ebd83","2437.3999999910593","","d","true","[[2,258],[258,597],[597,341],[341,2]]","true","4","main_T2_Trial","d","img/Fire_Down_Target.gif","[""img/Fire_Up_Distractor.gif"",""img/Fire_Up_Distractor.gif"",""img/Fire_Up_Distractor.gif"",""img/Fire_Up_Distractor.gif"",""img/Fire_Up_Distractor.gif"",""img/Fire_Up_Distractor.gif"",""img/Fire_Up_Distractor.gif"",""img/Fire_Up_Distractor.gif"",""img/Fire_Up_Distractor.gif"",""img/Fire_Up_Distractor.gif"",""img/Fire_Up_Distractor.gif"",""img/Fire_Up_Distractor.gif""]","4","targetDown_distractorsUp"
"","","","","","html-keyboard-response","158","905935","0.0-14.0-0.0-0.72","60143a1a222eb43daf203877","619531dcf66c91622fa1b861","619595f2226b3fea0d3ebd83","null","","null","","","","","main_T1_ITI","","","","",""
"","","","","","visual-search-circle","159","909204","0.0-14.0-0.0-1.72","60143a1a222eb43daf203877","619531dcf66c91622fa1b861","619595f2226b3fea0d3ebd83","2261","","d","true","[[581,402],[529,107],[247,4],[18,197],[70,492],[352,595]]","true","6","main_T2_Trial","d","img/Fire_Up_Target.gif","[""img/Fire_Down_Distractor.gif"",""img/Fire_Down_Distractor.gif"",""img/Fire_Down_Distractor.gif"",""img/Fire_Down_Distractor.gif"",""img/Fire_Down_Distractor.gif"",""img/Fire_Down_Distractor.gif"",""img/Fire_Down_Distractor.gif"",""img/Fire_Down_Distractor.gif"",""img/Fire_Down_Distractor.gif"",""img/Fire_Down_Distractor.gif"",""img/Fire_Down_Distractor.gif"",""img/Fire_Down_Distractor.gif""]","6","targetUp_distractorsDown"
"","","","","","html-keyboard-response","160","909210","0.0-14.0-0.0-0.73","60143a1a222eb43daf203877","619531dcf66c91622fa1b861","619595f2226b3fea0d3ebd83","null","","null","","","","","main_T1_ITI","","","","",""
"","","","","","visual-search-circle","161","912441","0.0-14.0-0.0-1.73","60143a1a222eb43daf203877","619531dcf66c91622fa1b861","619595f2226b3fea0d3ebd83","2218.2000000029802","","d","true","[[569,168],[320,0],[51,132],[30,431],[279,599],[548,467]]","true","6","main_T2_Trial","d","img/Fire_Down_Target.gif","[""img/Fire_Up_Distractor.gif"",""img/Fire_Up_Distractor.gif"",""img/Fire_Up_Distractor.gif"",""img/Fire_Up_Distractor.gif"",""img/Fire_Up_Distractor.gif"",""img/Fire_Up_Distractor.gif"",""img/Fire_Up_Distractor.gif"",""img/Fire_Up_Distractor.gif"",""img/Fire_Up_Distractor.gif"",""img/Fire_Up_Distractor.gif"",""img/Fire_Up_Distractor.gif"",""img/Fire_Up_Distractor.gif""]","6","targetDown_distractorsUp"
"","","","","","html-keyboard-response","162","912444","0.0-14.0-0.0-0.74","60143a1a222eb43daf203877","619531dcf66c91622fa1b861","619595f2226b3fea0d3ebd83","null","","null","","","","","main_T1_ITI","","","","",""
"","","","","","visual-search-circle","163","915422","0.0-14.0-0.0-1.74","60143a1a222eb43daf203877","619531dcf66c91622fa1b861","619595f2226b3fea0d3ebd83","1970","","s","true","[[500,522],[599,315],[522,99],[315,0],[99,77],[0,284],[77,500],[284,599]]","false","8","main_T2_Trial","s","img/Fire_Down_Target.gif","[""img/Fire_Up_Distractor.gif"",""img/Fire_Up_Distractor.gif"",""img/Fire_Up_Distractor.gif"",""img/Fire_Up_Distractor.gif"",""img/Fire_Up_Distractor.gif"",""img/Fire_Up_Distractor.gif"",""img/Fire_Up_Distractor.gif"",""img/Fire_Up_Distractor.gif"",""img/Fire_Up_Distractor.gif"",""img/Fire_Up_Distractor.gif"",""img/Fire_Up_Distractor.gif"",""img/Fire_Up_Distractor.gif""]","8","targetDown_distractorsUp"
"","","","","","html-keyboard-response","164","915424","0.0-14.0-0.0-0.75","60143a1a222eb43daf203877","619531dcf66c91622fa1b861","619595f2226b3fea0d3ebd83","null","","null","","","","","main_T1_ITI","","","","",""
"","","","","","visual-search-circle","165","917300","0.0-14.0-0.0-1.75","60143a1a222eb43daf203877","619531dcf66c91622fa1b861","619595f2226b3fea0d3ebd83","868.7999999970198","","s","true","[[305,0],[16,202],[119,539],[472,545],[586,212]]","false","5","main_T2_Trial","s","img/Fire_Down_Target.gif","[""img/Fire_Up_Distractor.gif"",""img/Fire_Up_Distractor.gif"",""img/Fire_Up_Distractor.gif"",""img/Fire_Up_Distractor.gif"",""img/Fire_Up_Distractor.gif"",""img/Fire_Up_Distractor.gif"",""img/Fire_Up_Distractor.gif"",""img/Fire_Up_Distractor.gif"",""img/Fire_Up_Distractor.gif"",""img/Fire_Up_Distractor.gif"",""img/Fire_Up_Distractor.gif"",""img/Fire_Up_Distractor.gif""]","5","targetDown_distractorsUp"
"","","","","","html-keyboard-response","166","917302","0.0-14.0-0.0-0.76","60143a1a222eb43daf203877","619531dcf66c91622fa1b861","619595f2226b3fea0d3ebd83","null","","null","","","","","main_T1_ITI","","","","",""
"","","","","","visual-search-circle","167","919108","0.0-14.0-0.0-1.76","60143a1a222eb43daf203877","619531dcf66c91622fa1b861","619595f2226b3fea0d3ebd83","796.8999999910593","","s","true","[[504,80],[154,37],[5,357],[263,597],[571,426]]","false","5","main_T2_Trial","s","img/Fire_Down_Target.gif","[""img/Fire_Up_Distractor.gif"",""img/Fire_Up_Distractor.gif"",""img/Fire_Up_Distractor.gif"",""img/Fire_Up_Distractor.gif"",""img/Fire_Up_Distractor.gif"",""img/Fire_Up_Distractor.gif"",""img/Fire_Up_Distractor.gif"",""img/Fire_Up_Distractor.gif"",""img/Fire_Up_Distractor.gif"",""img/Fire_Up_Distractor.gif"",""img/Fire_Up_Distractor.gif"",""img/Fire_Up_Distractor.gif""]","5","targetDown_distractorsUp"
"","","","","","html-keyboard-response","168","919110","0.0-14.0-0.0-0.77","60143a1a222eb43daf203877","619531dcf66c91622fa1b861","619595f2226b3fea0d3ebd83","null","","null","","","","","main_T1_ITI","","","","",""
"","","","","","visual-search-circle","169","920923","0.0-14.0-0.0-1.77","60143a1a222eb43daf203877","619531dcf66c91622fa1b861","619595f2226b3fea0d3ebd83","804.2999999970198","","d","true","[[0,284],[77,500],[284,599],[500,522],[599,315],[522,99],[315,0],[99,77]]","true","8","main_T2_Trial","d","img/Fire_Down_Target.gif","[""img/Fire_Up_Distractor.gif"",""img/Fire_Up_Distractor.gif"",""img/Fire_Up_Distractor.gif"",""img/Fire_Up_Distractor.gif"",""img/Fire_Up_Distractor.gif"",""img/Fire_Up_Distractor.gif"",""img/Fire_Up_Distractor.gif"",""img/Fire_Up_Distractor.gif"",""img/Fire_Up_Distractor.gif"",""img/Fire_Up_Distractor.gif"",""img/Fire_Up_Distractor.gif"",""img/Fire_Up_Distractor.gif""]","8","targetDown_distractorsUp"
"","","","","","html-keyboard-response","170","920925","0.0-14.0-0.0-0.78","60143a1a222eb43daf203877","619531dcf66c91622fa1b861","619595f2226b3fea0d3ebd83","null","","null","","","","","main_T1_ITI","","","","",""
"","","","","","visual-search-circle","171","925913","0.0-14.0-0.0-1.78","60143a1a222eb43daf203877","619531dcf66c91622fa1b861","619595f2226b3fea0d3ebd83","3978.800000011921","","s","false","[[141,554],[554,458],[458,45],[45,141]]","true","4","main_T2_Trial","d","img/Fire_Up_Target.gif","[""img/Fire_Down_Distractor.gif"",""img/Fire_Down_Distractor.gif"",""img/Fire_Down_Distractor.gif"",""img/Fire_Down_Distractor.gif"",""img/Fire_Down_Distractor.gif"",""img/Fire_Down_Distractor.gif"",""img/Fire_Down_Distractor.gif"",""img/Fire_Down_Distractor.gif"",""img/Fire_Down_Distractor.gif"",""img/Fire_Down_Distractor.gif"",""img/Fire_Down_Distractor.gif"",""img/Fire_Down_Distractor.gif""]","4","targetUp_distractorsDown"
"","","","","","html-keyboard-response","172","928039","0.0-14.0-0.0-0.79","60143a1a222eb43daf203877","619531dcf66c91622fa1b861","619595f2226b3fea0d3ebd83","2126","Wow! You've completed 80 out of 160 trials! </p> <p>  </p><p> Take a quick break, then press any key when you're ready to continue."," ","","","","","main_T1_ITI","","","","",""
"","","","","","visual-search-circle","173","930432","0.0-14.0-0.0-1.79","60143a1a222eb43daf203877","619531dcf66c91622fa1b861","619595f2226b3fea0d3ebd83","1387.5999999940395","","s","true","[[594,242],[242,5],[5,357],[357,594]]","false","4","main_T2_Trial","s","img/Fire_Down_Target.gif","[""img/Fire_Up_Distractor.gif"",""img/Fire_Up_Distractor.gif"",""img/Fire_Up_Distractor.gif"",""img/Fire_Up_Distractor.gif"",""img/Fire_Up_Distractor.gif"",""img/Fire_Up_Distractor.gif"",""img/Fire_Up_Distractor.gif"",""img/Fire_Up_Distractor.gif"",""img/Fire_Up_Distractor.gif"",""img/Fire_Up_Distractor.gif"",""img/Fire_Up_Distractor.gif"",""img/Fire_Up_Distractor.gif""]","4","targetDown_distractorsUp"
"","","","","","html-keyboard-response","174","930433","0.0-14.0-0.0-0.80","60143a1a222eb43daf203877","619531dcf66c91622fa1b861","619595f2226b3fea0d3ebd83","null","","null","","","","","main_T1_ITI","","","","",""
"","","","","","visual-search-circle","175","932567","0.0-14.0-0.0-1.80","60143a1a222eb43daf203877","619531dcf66c91622fa1b861","619595f2226b3fea0d3ebd83","1129.5","","d","true","[[119,539],[472,545],[586,212],[305,0],[16,202]]","true","5","main_T2_Trial","d","img/Fire_Down_Target.gif","[""img/Fire_Up_Distractor.gif"",""img/Fire_Up_Distractor.gif"",""img/Fire_Up_Distractor.gif"",""img/Fire_Up_Distractor.gif"",""img/Fire_Up_Distractor.gif"",""img/Fire_Up_Distractor.gif"",""img/Fire_Up_Distractor.gif"",""img/Fire_Up_Distractor.gif"",""img/Fire_Up_Distractor.gif"",""img/Fire_Up_Distractor.gif"",""img/Fire_Up_Distractor.gif"",""img/Fire_Up_Distractor.gif""]","5","targetDown_distractorsUp"
"","","","","","html-keyboard-response","176","932569","0.0-14.0-0.0-0.81","60143a1a222eb43daf203877","619531dcf66c91622fa1b861","619595f2226b3fea0d3ebd83","null","","null","","","","","main_T1_ITI","","","","",""
"","","","","","visual-search-circle","177","934789","0.0-14.0-0.0-1.81","60143a1a222eb43daf203877","619531dcf66c91622fa1b861","619595f2226b3fea0d3ebd83","1210.0999999940395","","s","true","[[512,87],[266,1],[45,140],[16,399],[200,583],[459,554],[598,333]]","false","7","main_T2_Trial","s","img/Fire_Down_Target.gif","[""img/Fire_Up_Distractor.gif"",""img/Fire_Up_Distractor.gif"",""img/Fire_Up_Distractor.gif"",""img/Fire_Up_Distractor.gif"",""img/Fire_Up_Distractor.gif"",""img/Fire_Up_Distractor.gif"",""img/Fire_Up_Distractor.gif"",""img/Fire_Up_Distractor.gif"",""img/Fire_Up_Distractor.gif"",""img/Fire_Up_Distractor.gif"",""img/Fire_Up_Distractor.gif"",""img/Fire_Up_Distractor.gif""]","7","targetDown_distractorsUp"
"","","","","","html-keyboard-response","178","934791","0.0-14.0-0.0-0.82","60143a1a222eb43daf203877","619531dcf66c91622fa1b861","619595f2226b3fea0d3ebd83","null","","null","","","","","main_T1_ITI","","","","",""
"","","","","","visual-search-circle","179","936815","0.0-14.0-0.0-1.82","60143a1a222eb43daf203877","619531dcf66c91622fa1b861","619595f2226b3fea0d3ebd83","1015.3999999910593","","s","true","[[4,352],[156,563],[416,576],[588,381],[543,124],[314,0],[75,101]]","false","7","main_T2_Trial","s","img/Fire_Up_Target.gif","[""img/Fire_Down_Distractor.gif"",""img/Fire_Down_Distractor.gif"",""img/Fire_Down_Distractor.gif"",""img/Fire_Down_Distractor.gif"",""img/Fire_Down_Distractor.gif"",""img/Fire_Down_Distractor.gif"",""img/Fire_Down_Distractor.gif"",""img/Fire_Down_Distractor.gif"",""img/Fire_Down_Distractor.gif"",""img/Fire_Down_Distractor.gif"",""img/Fire_Down_Distractor.gif"",""img/Fire_Down_Distractor.gif""]","7","targetUp_distractorsDown"
"","","","","","html-keyboard-response","180","936817","0.0-14.0-0.0-0.83","60143a1a222eb43daf203877","619531dcf66c91622fa1b861","619595f2226b3fea0d3ebd83","null","","null","","","","","main_T1_ITI","","","","",""
"","","","","","visual-search-circle","181","939768","0.0-14.0-0.0-1.83","60143a1a222eb43daf203877","619531dcf66c91622fa1b861","619595f2226b3fea0d3ebd83","1946","","s","true","[[472,54],[247,4],[54,127],[4,352],[127,545],[352,595],[545,472],[595,247]]","false","8","main_T2_Trial","s","img/Fire_Up_Target.gif","[""img/Fire_Down_Distractor.gif"",""img/Fire_Down_Distractor.gif"",""img/Fire_Down_Distractor.gif"",""img/Fire_Down_Distractor.gif"",""img/Fire_Down_Distractor.gif"",""img/Fire_Down_Distractor.gif"",""img/Fire_Down_Distractor.gif"",""img/Fire_Down_Distractor.gif"",""img/Fire_Down_Distractor.gif"",""img/Fire_Down_Distractor.gif"",""img/Fire_Down_Distractor.gif"",""img/Fire_Down_Distractor.gif""]","8","targetUp_distractorsDown"
"","","","","","html-keyboard-response","182","939769","0.0-14.0-0.0-0.84","60143a1a222eb43daf203877","619531dcf66c91622fa1b861","619595f2226b3fea0d3ebd83","null","","null","","","","","main_T1_ITI","","","","",""
"","","","","","visual-search-circle","183","941794","0.0-14.0-0.0-1.84","60143a1a222eb43daf203877","619531dcf66c91622fa1b861","619595f2226b3fea0d3ebd83","1017.2000000029802","","s","true","[[13,387],[159,564],[387,586],[564,440],[586,212],[440,35],[212,13],[35,159]]","false","8","main_T2_Trial","s","img/Fire_Up_Target.gif","[""img/Fire_Down_Distractor.gif"",""img/Fire_Down_Distractor.gif"",""img/Fire_Down_Distractor.gif"",""img/Fire_Down_Distractor.gif"",""img/Fire_Down_Distractor.gif"",""img/Fire_Down_Distractor.gif"",""img/Fire_Down_Distractor.gif"",""img/Fire_Down_Distractor.gif"",""img/Fire_Down_Distractor.gif"",""img/Fire_Down_Distractor.gif"",""img/Fire_Down_Distractor.gif"",""img/Fire_Down_Distractor.gif""]","8","targetUp_distractorsDown"
"","","","","","html-keyboard-response","184","941796","0.0-14.0-0.0-0.85","60143a1a222eb43daf203877","619531dcf66c91622fa1b861","619595f2226b3fea0d3ebd83","null","","null","","","","","main_T1_ITI","","","","",""
"","","","","","visual-search-circle","185","943711","0.0-14.0-0.0-1.85","60143a1a222eb43daf203877","619531dcf66c91622fa1b861","619595f2226b3fea0d3ebd83","899.0999999940395","","s","true","[[48,136],[136,551],[551,463],[463,48]]","false","4","main_T2_Trial","s","img/Fire_Down_Target.gif","[""img/Fire_Up_Distractor.gif"",""img/Fire_Up_Distractor.gif"",""img/Fire_Up_Distractor.gif"",""img/Fire_Up_Distractor.gif"",""img/Fire_Up_Distractor.gif"",""img/Fire_Up_Distractor.gif"",""img/Fire_Up_Distractor.gif"",""img/Fire_Up_Distractor.gif"",""img/Fire_Up_Distractor.gif"",""img/Fire_Up_Distractor.gif"",""img/Fire_Up_Distractor.gif"",""img/Fire_Up_Distractor.gif""]","4","targetDown_distractorsUp"
"","","","","","html-keyboard-response","186","943714","0.0-14.0-0.0-0.86","60143a1a222eb43daf203877","619531dcf66c91622fa1b861","619595f2226b3fea0d3ebd83","null","","null","","","","","main_T1_ITI","","","","",""
"","","","","","visual-search-circle","187","945562","0.0-14.0-0.0-1.86","60143a1a222eb43daf203877","619531dcf66c91622fa1b861","619595f2226b3fea0d3ebd83","845.1999999880791","","d","true","[[367,7],[113,64],[0,299],[112,534],[366,592],[569,430],[570,170]]","true","7","main_T2_Trial","d","img/Fire_Down_Target.gif","[""img/Fire_Up_Distractor.gif"",""img/Fire_Up_Distractor.gif"",""img/Fire_Up_Distractor.gif"",""img/Fire_Up_Distractor.gif"",""img/Fire_Up_Distractor.gif"",""img/Fire_Up_Distractor.gif"",""img/Fire_Up_Distractor.gif"",""img/Fire_Up_Distractor.gif"",""img/Fire_Up_Distractor.gif"",""img/Fire_Up_Distractor.gif"",""img/Fire_Up_Distractor.gif"",""img/Fire_Up_Distractor.gif""]","7","targetDown_distractorsUp"
"","","","","","html-keyboard-response","188","945563","0.0-14.0-0.0-0.87","60143a1a222eb43daf203877","619531dcf66c91622fa1b861","619595f2226b3fea0d3ebd83","null","","null","","","","","main_T1_ITI","","","","",""
"","","","","","visual-search-circle","189","947202","0.0-14.0-0.0-1.87","60143a1a222eb43daf203877","619531dcf66c91622fa1b861","619595f2226b3fea0d3ebd83","637.2000000029802","","d","false","[[8,227],[227,591],[591,372],[372,8]]","false","4","main_T2_Trial","s","img/Fire_Down_Target.gif","[""img/Fire_Up_Distractor.gif"",""img/Fire_Up_Distractor.gif"",""img/Fire_Up_Distractor.gif"",""img/Fire_Up_Distractor.gif"",""img/Fire_Up_Distractor.gif"",""img/Fire_Up_Distractor.gif"",""img/Fire_Up_Distractor.gif"",""img/Fire_Up_Distractor.gif"",""img/Fire_Up_Distractor.gif"",""img/Fire_Up_Distractor.gif"",""img/Fire_Up_Distractor.gif"",""img/Fire_Up_Distractor.gif""]","4","targetDown_distractorsUp"
"","","","","","html-keyboard-response","190","947204","0.0-14.0-0.0-0.88","60143a1a222eb43daf203877","619531dcf66c91622fa1b861","619595f2226b3fea0d3ebd83","null","","null","","","","","main_T1_ITI","","","","",""
"","","","","","visual-search-circle","191","949718","0.0-14.0-0.0-1.88","60143a1a222eb43daf203877","619531dcf66c91622fa1b861","619595f2226b3fea0d3ebd83","1509.2999999970198","","s","true","[[45,141],[17,399],[201,583],[460,553],[598,332],[511,87],[265,1]]","false","7","main_T2_Trial","s","img/Fire_Up_Target.gif","[""img/Fire_Down_Distractor.gif"",""img/Fire_Down_Distractor.gif"",""img/Fire_Down_Distractor.gif"",""img/Fire_Down_Distractor.gif"",""img/Fire_Down_Distractor.gif"",""img/Fire_Down_Distractor.gif"",""img/Fire_Down_Distractor.gif"",""img/Fire_Down_Distractor.gif"",""img/Fire_Down_Distractor.gif"",""img/Fire_Down_Distractor.gif"",""img/Fire_Down_Distractor.gif"",""img/Fire_Down_Distractor.gif""]","7","targetUp_distractorsDown"
"","","","","","html-keyboard-response","192","949721","0.0-14.0-0.0-0.89","60143a1a222eb43daf203877","619531dcf66c91622fa1b861","619595f2226b3fea0d3ebd83","null","","null","","","","","main_T1_ITI","","","","",""
"","","","","","visual-search-circle","193","951966","0.0-14.0-0.0-1.89","60143a1a222eb43daf203877","619531dcf66c91622fa1b861","619595f2226b3fea0d3ebd83","1235.4000000059605","","s","true","[[0,299],[207,585],[542,476],[542,123],[207,14]]","false","5","main_T2_Trial","s","img/Fire_Up_Target.gif","[""img/Fire_Down_Distractor.gif"",""img/Fire_Down_Distractor.gif"",""img/Fire_Down_Distractor.gif"",""img/Fire_Down_Distractor.gif"",""img/Fire_Down_Distractor.gif"",""img/Fire_Down_Distractor.gif"",""img/Fire_Down_Distractor.gif"",""img/Fire_Down_Distractor.gif"",""img/Fire_Down_Distractor.gif"",""img/Fire_Down_Distractor.gif"",""img/Fire_Down_Distractor.gif"",""img/Fire_Down_Distractor.gif""]","5","targetUp_distractorsDown"
"","","","","","html-keyboard-response","194","951973","0.0-14.0-0.0-0.90","60143a1a222eb43daf203877","619531dcf66c91622fa1b861","619595f2226b3fea0d3ebd83","null","","null","","","","","main_T1_ITI","","","","",""
"","","","","","visual-search-circle","195","953750","0.0-14.0-0.0-1.90","60143a1a222eb43daf203877","619531dcf66c91622fa1b861","619595f2226b3fea0d3ebd83","773.7999999970198","","d","true","[[397,583],[599,294],[387,13],[54,127],[60,480]]","true","5","main_T2_Trial","d","img/Fire_Up_Target.gif","[""img/Fire_Down_Distractor.gif"",""img/Fire_Down_Distractor.gif"",""img/Fire_Down_Distractor.gif"",""img/Fire_Down_Distractor.gif"",""img/Fire_Down_Distractor.gif"",""img/Fire_Down_Distractor.gif"",""img/Fire_Down_Distractor.gif"",""img/Fire_Down_Distractor.gif"",""img/Fire_Down_Distractor.gif"",""img/Fire_Down_Distractor.gif"",""img/Fire_Down_Distractor.gif"",""img/Fire_Down_Distractor.gif""]","5","targetUp_distractorsDown"
"","","","","","html-keyboard-response","196","953752","0.0-14.0-0.0-0.91","60143a1a222eb43daf203877","619531dcf66c91622fa1b861","619595f2226b3fea0d3ebd83","null","","null","","","","","main_T1_ITI","","","","",""
"","","","","","visual-search-circle","197","956359","0.0-14.0-0.0-1.91","60143a1a222eb43daf203877","619531dcf66c91622fa1b861","619595f2226b3fea0d3ebd83","1598.0999999940395","","s","true","[[163,567],[512,512],[567,163],[253,3],[3,253]]","false","5","main_T2_Trial","s","img/Fire_Up_Target.gif","[""img/Fire_Down_Distractor.gif"",""img/Fire_Down_Distractor.gif"",""img/Fire_Down_Distractor.gif"",""img/Fire_Down_Distractor.gif"",""img/Fire_Down_Distractor.gif"",""img/Fire_Down_Distractor.gif"",""img/Fire_Down_Distractor.gif"",""img/Fire_Down_Distractor.gif"",""img/Fire_Down_Distractor.gif"",""img/Fire_Down_Distractor.gif"",""img/Fire_Down_Distractor.gif"",""img/Fire_Down_Distractor.gif""]","5","targetUp_distractorsDown"
"","","","","","html-keyboard-response","198","956361","0.0-14.0-0.0-0.92","60143a1a222eb43daf203877","619531dcf66c91622fa1b861","619595f2226b3fea0d3ebd83","null","","null","","","","","main_T1_ITI","","","","",""
"","","","","","visual-search-circle","199","958081","0.0-14.0-0.0-1.92","60143a1a222eb43daf203877","619531dcf66c91622fa1b861","619595f2226b3fea0d3ebd83","712.6000000089407","","d","true","[[168,569],[569,431],[431,30],[30,168]]","true","4","main_T2_Trial","d","img/Fire_Up_Target.gif","[""img/Fire_Down_Distractor.gif"",""img/Fire_Down_Distractor.gif"",""img/Fire_Down_Distractor.gif"",""img/Fire_Down_Distractor.gif"",""img/Fire_Down_Distractor.gif"",""img/Fire_Down_Distractor.gif"",""img/Fire_Down_Distractor.gif"",""img/Fire_Down_Distractor.gif"",""img/Fire_Down_Distractor.gif"",""img/Fire_Down_Distractor.gif"",""img/Fire_Down_Distractor.gif"",""img/Fire_Down_Distractor.gif""]","4","targetUp_distractorsDown"
"","","","","","html-keyboard-response","200","958091","0.0-14.0-0.0-0.93","60143a1a222eb43daf203877","619531dcf66c91622fa1b861","619595f2226b3fea0d3ebd83","null","","null","","","","","main_T1_ITI","","","","",""
"","","","","","visual-search-circle","201","960441","0.0-14.0-0.0-1.93","60143a1a222eb43daf203877","619531dcf66c91622fa1b861","619595f2226b3fea0d3ebd83","1336.800000011921","","s","true","[[132,51],[0,320],[168,569],[467,548],[599,279],[431,30]]","false","6","main_T2_Trial","s","img/Fire_Down_Target.gif","[""img/Fire_Up_Distractor.gif"",""img/Fire_Up_Distractor.gif"",""img/Fire_Up_Distractor.gif"",""img/Fire_Up_Distractor.gif"",""img/Fire_Up_Distractor.gif"",""img/Fire_Up_Distractor.gif"",""img/Fire_Up_Distractor.gif"",""img/Fire_Up_Distractor.gif"",""img/Fire_Up_Distractor.gif"",""img/Fire_Up_Distractor.gif"",""img/Fire_Up_Distractor.gif"",""img/Fire_Up_Distractor.gif""]","6","targetDown_distractorsUp"
"","","","","","html-keyboard-response","202","960443","0.0-14.0-0.0-0.94","60143a1a222eb43daf203877","619531dcf66c91622fa1b861","619595f2226b3fea0d3ebd83","null","","null","","","","","main_T1_ITI","","","","",""
"","","","","","visual-search-circle","203","962610","0.0-14.0-0.0-1.94","60143a1a222eb43daf203877","619531dcf66c91622fa1b861","619595f2226b3fea0d3ebd83","1148.7999999970198","","s","true","[[115,536],[536,484],[484,63],[63,115]]","false","4","main_T2_Trial","s","img/Fire_Up_Target.gif","[""img/Fire_Down_Distractor.gif"",""img/Fire_Down_Distractor.gif"",""img/Fire_Down_Distractor.gif"",""img/Fire_Down_Distractor.gif"",""img/Fire_Down_Distractor.gif"",""img/Fire_Down_Distractor.gif"",""img/Fire_Down_Distractor.gif"",""img/Fire_Down_Distractor.gif"",""img/Fire_Down_Distractor.gif"",""img/Fire_Down_Distractor.gif"",""img/Fire_Down_Distractor.gif"",""img/Fire_Down_Distractor.gif""]","4","targetUp_distractorsDown"
"","","","","","html-keyboard-response","204","962611","0.0-14.0-0.0-0.95","60143a1a222eb43daf203877","619531dcf66c91622fa1b861","619595f2226b3fea0d3ebd83","null","","null","","","","","main_T1_ITI","","","","",""
"","","","","","visual-search-circle","205","966687","0.0-14.0-0.0-1.95","60143a1a222eb43daf203877","619531dcf66c91622fa1b861","619595f2226b3fea0d3ebd83","3069.1000000089407","","d","true","[[16,202],[73,496],[357,594],[583,397],[526,103],[242,5]]","true","6","main_T2_Trial","d","img/Fire_Up_Target.gif","[""img/Fire_Down_Distractor.gif"",""img/Fire_Down_Distractor.gif"",""img/Fire_Down_Distractor.gif"",""img/Fire_Down_Distractor.gif"",""img/Fire_Down_Distractor.gif"",""img/Fire_Down_Distractor.gif"",""img/Fire_Down_Distractor.gif"",""img/Fire_Down_Distractor.gif"",""img/Fire_Down_Distractor.gif"",""img/Fire_Down_Distractor.gif"",""img/Fire_Down_Distractor.gif"",""img/Fire_Down_Distractor.gif""]","6","targetUp_distractorsDown"
"","","","","","html-keyboard-response","206","966690","0.0-14.0-0.0-0.96","60143a1a222eb43daf203877","619531dcf66c91622fa1b861","619595f2226b3fea0d3ebd83","null","","null","","","","","main_T1_ITI","","","","",""
"","","","","","visual-search-circle","207","972080","0.0-14.0-0.0-1.96","60143a1a222eb43daf203877","619531dcf66c91622fa1b861","619595f2226b3fea0d3ebd83","4380.699999988079","","d","true","[[45,141],[7,367],[141,554],[367,592],[554,458],[592,232],[458,45],[232,7]]","true","8","main_T2_Trial","d","img/Fire_Up_Target.gif","[""img/Fire_Down_Distractor.gif"",""img/Fire_Down_Distractor.gif"",""img/Fire_Down_Distractor.gif"",""img/Fire_Down_Distractor.gif"",""img/Fire_Down_Distractor.gif"",""img/Fire_Down_Distractor.gif"",""img/Fire_Down_Distractor.gif"",""img/Fire_Down_Distractor.gif"",""img/Fire_Down_Distractor.gif"",""img/Fire_Down_Distractor.gif"",""img/Fire_Down_Distractor.gif"",""img/Fire_Down_Distractor.gif""]","8","targetUp_distractorsDown"
"","","","","","html-keyboard-response","208","972083","0.0-14.0-0.0-0.97","60143a1a222eb43daf203877","619531dcf66c91622fa1b861","619595f2226b3fea0d3ebd83","null","","null","","","","","main_T1_ITI","","","","",""
"","","","","","visual-search-circle","209","974701","0.0-14.0-0.0-1.97","60143a1a222eb43daf203877","619531dcf66c91622fa1b861","619595f2226b3fea0d3ebd83","1609.7000000029802","","d","true","[[586,387],[519,95],[232,7],[13,212],[80,504],[367,592]]","true","6","main_T2_Trial","d","img/Fire_Up_Target.gif","[""img/Fire_Down_Distractor.gif"",""img/Fire_Down_Distractor.gif"",""img/Fire_Down_Distractor.gif"",""img/Fire_Down_Distractor.gif"",""img/Fire_Down_Distractor.gif"",""img/Fire_Down_Distractor.gif"",""img/Fire_Down_Distractor.gif"",""img/Fire_Down_Distractor.gif"",""img/Fire_Down_Distractor.gif"",""img/Fire_Down_Distractor.gif"",""img/Fire_Down_Distractor.gif"",""img/Fire_Down_Distractor.gif""]","6","targetUp_distractorsDown"
"","","","","","html-keyboard-response","210","974705","0.0-14.0-0.0-0.98","60143a1a222eb43daf203877","619531dcf66c91622fa1b861","619595f2226b3fea0d3ebd83","null","","null","","","","","main_T1_ITI","","","","",""
"","","","","","visual-search-circle","211","976834","0.0-14.0-0.0-1.98","60143a1a222eb43daf203877","619531dcf66c91622fa1b861","619595f2226b3fea0d3ebd83","1119.5","","s","true","[[599,315],[407,19],[66,111],[48,463],[377,589]]","false","5","main_T2_Trial","s","img/Fire_Down_Target.gif","[""img/Fire_Up_Distractor.gif"",""img/Fire_Up_Distractor.gif"",""img/Fire_Up_Distractor.gif"",""img/Fire_Up_Distractor.gif"",""img/Fire_Up_Distractor.gif"",""img/Fire_Up_Distractor.gif"",""img/Fire_Up_Distractor.gif"",""img/Fire_Up_Distractor.gif"",""img/Fire_Up_Distractor.gif"",""img/Fire_Up_Distractor.gif"",""img/Fire_Up_Distractor.gif"",""img/Fire_Up_Distractor.gif""]","5","targetDown_distractorsUp"
"","","","","","html-keyboard-response","212","977754","0.0-14.0-0.0-0.99","60143a1a222eb43daf203877","619531dcf66c91622fa1b861","619595f2226b3fea0d3ebd83","919.7000000029802","Wow! You've completed 100 out of 160 trials! </p> <p>  </p><p> Take a quick break, then press any key when you're ready to continue."," ","","","","","main_T1_ITI","","","","",""
"","","","","","visual-search-circle","213","979893","0.0-14.0-0.0-1.99","60143a1a222eb43daf203877","619531dcf66c91622fa1b861","619595f2226b3fea0d3ebd83","1132.4000000059605","","d","true","[[141,554],[367,592],[554,458],[592,232],[458,45],[232,7],[45,141],[7,367]]","true","8","main_T2_Trial","d","img/Fire_Down_Target.gif","[""img/Fire_Up_Distractor.gif"",""img/Fire_Up_Distractor.gif"",""img/Fire_Up_Distractor.gif"",""img/Fire_Up_Distractor.gif"",""img/Fire_Up_Distractor.gif"",""img/Fire_Up_Distractor.gif"",""img/Fire_Up_Distractor.gif"",""img/Fire_Up_Distractor.gif"",""img/Fire_Up_Distractor.gif"",""img/Fire_Up_Distractor.gif"",""img/Fire_Up_Distractor.gif"",""img/Fire_Up_Distractor.gif""]","8","targetDown_distractorsUp"
"","","","","","html-keyboard-response","214","979895","0.0-14.0-0.0-0.100","60143a1a222eb43daf203877","619531dcf66c91622fa1b861","619595f2226b3fea0d3ebd83","null","","null","","","","","main_T1_ITI","","","","",""
"","","","","","visual-search-circle","215","982253","0.0-14.0-0.0-1.100","60143a1a222eb43daf203877","619531dcf66c91622fa1b861","619595f2226b3fea0d3ebd83","1350.5","","s","true","[[242,5],[5,357],[357,594],[594,242]]","false","4","main_T2_Trial","s","img/Fire_Down_Target.gif","[""img/Fire_Up_Distractor.gif"",""img/Fire_Up_Distractor.gif"",""img/Fire_Up_Distractor.gif"",""img/Fire_Up_Distractor.gif"",""img/Fire_Up_Distractor.gif"",""img/Fire_Up_Distractor.gif"",""img/Fire_Up_Distractor.gif"",""img/Fire_Up_Distractor.gif"",""img/Fire_Up_Distractor.gif"",""img/Fire_Up_Distractor.gif"",""img/Fire_Up_Distractor.gif"",""img/Fire_Up_Distractor.gif""]","4","targetDown_distractorsUp"
"","","","","","html-keyboard-response","216","982257","0.0-14.0-0.0-0.101","60143a1a222eb43daf203877","619531dcf66c91622fa1b861","619595f2226b3fea0d3ebd83","null","","null","","","","","main_T1_ITI","","","","",""
