"success","timeout","failed_images","failed_audio","failed_video","trial_type","trial_index","time_elapsed","internal_node_id","subject_id","study_id","session_id","rt","stimulus","response","correct","locations","target_present","set_size","task","correct_response","target","foilCM","setSizeCM","searchCondition"
"true","false","[]","[]","[]","preload","0","21934","0.0-0.0","601ae161bca3983decaca14d","619531dcf66c91622fa1b861","61959621ea5e274bdae7ccfe","","","","","","","","","","","","",""
"true","","","","","fullscreen","1","27517","0.0-1.0","601ae161bca3983decaca14d","619531dcf66c91622fa1b861","61959621ea5e274bdae7ccfe","","","","","","","","","","","","",""
"","","","","","html-keyboard-response","2","44150","0.0-2.0","601ae161bca3983decaca14d","619531dcf66c91622fa1b861","61959621ea5e274bdae7ccfe","16631","What a beautiful Thursday to do some awesome science! </p> <p>  </p><p> </p>
    By completing this survey or questionnaire, you are consenting to be in this research study. </p>
    Your participation is voluntary and you can stop at any time.
    <p> [Press any key to continue.] </p>
    
    "," ","","","","","","","","","",""
"","","","","","video-keyboard-response","3","109074","0.0-3.0","601ae161bca3983decaca14d","619531dcf66c91622fa1b861","61959621ea5e274bdae7ccfe","64863","[""video/TaskInstructions.mp4""]"," ","","","","","","","","","",""
"","","","","","html-keyboard-response","4","113565","0.0-4.0","601ae161bca3983decaca14d","619531dcf66c91622fa1b861","61959621ea5e274bdae7ccfe","4489","
    <p>First, we're going to do a few practice trials to make sure you understand the task. You will recieve feedback on each trial. </p>
    <p>[Press any key to begin the familiarization phase.]</p>
    "," ","","","","","","","","","",""
"","","","","","visual-search-circle","5","116833","0.0-5.0-0.0","601ae161bca3983decaca14d","619531dcf66c91622fa1b861","61959621ea5e274bdae7ccfe","2193","","d","true","[[515,508],[508,84],[84,91],[91,515]]","true","4","training","d","","","",""
"","","","","","html-keyboard-response","6","119945","0.0-6.0","601ae161bca3983decaca14d","619531dcf66c91622fa1b861","61959621ea5e274bdae7ccfe","3107"," <div style='float: center; '><img src='img/feedbackRight.png'></img> </div> "," ","","","","","","","","","",""
"","","","","","visual-search-circle","7","121972","0.0-7.0-0.0","601ae161bca3983decaca14d","619531dcf66c91622fa1b861","61959621ea5e274bdae7ccfe","1024","","s","true","[[567,163],[163,32],[32,436],[436,567]]","false","4","training","s","","","",""
"","","","","","html-keyboard-response","8","123081","0.0-8.0","601ae161bca3983decaca14d","619531dcf66c91622fa1b861","61959621ea5e274bdae7ccfe","1107"," <div style='float: center; '><img src='img/feedbackRight.png'></img> </div> "," ","","","","","","","","","",""
"","","","","","visual-search-circle","9","125738","0.0-9.0-0.0","601ae161bca3983decaca14d","619531dcf66c91622fa1b861","61959621ea5e274bdae7ccfe","1641","","d","false","[[580,407],[533,111],[253,3],[19,192],[66,488],[346,596]]","false","6","training","s","","","",""
"","","","","","html-keyboard-response","10","128188","0.0-10.0","601ae161bca3983decaca14d","619531dcf66c91622fa1b861","61959621ea5e274bdae7ccfe","2449"," <div style='float: center;'><img src='img/feedbackWrong.png'></img> </div> "," ","","","","","","","","","",""
"","","","","","visual-search-circle","11","130333","0.0-11.0-0.0","601ae161bca3983decaca14d","619531dcf66c91622fa1b861","61959621ea5e274bdae7ccfe","1131","","d","true","[[63,115],[2,336],[115,536],[336,597],[536,484],[597,263],[484,63],[263,2]]","true","8","training","d","","","",""
"","","","","","html-keyboard-response","12","134521","0.0-12.0","601ae161bca3983decaca14d","619531dcf66c91622fa1b861","61959621ea5e274bdae7ccfe","4188"," <div style='float: center; '><img src='img/feedbackRight.png'></img> </div> "," ","","","","","","","","","",""
"","","","","","video-keyboard-response","13","139998","0.0-13.0","601ae161bca3983decaca14d","619531dcf66c91622fa1b861","61959621ea5e274bdae7ccfe","5470","[""video/endTraining.mp4""]"," ","","","","","","","","","",""
"","","","","","html-keyboard-response","14","140004","0.0-14.0-0.0-0.0","601ae161bca3983decaca14d","619531dcf66c91622fa1b861","61959621ea5e274bdae7ccfe","null","","null","","","","","main_T1_ITI","","","","",""
"","","","","","visual-search-circle","15","142387","0.0-14.0-0.0-1.0","601ae161bca3983decaca14d","619531dcf66c91622fa1b861","61959621ea5e274bdae7ccfe","1371","","d","false","[[422,574],[598,268],[362,6],[40,150],[77,500]]","false","5","main_T2_Trial","s","img/Fire_Down_Target.gif","[""img/Fire_Up_Distractor.gif"",""img/Fire_Up_Distractor.gif"",""img/Fire_Up_Distractor.gif"",""img/Fire_Up_Distractor.gif"",""img/Fire_Up_Distractor.gif"",""img/Fire_Up_Distractor.gif"",""img/Fire_Up_Distractor.gif"",""img/Fire_Up_Distractor.gif"",""img/Fire_Up_Distractor.gif"",""img/Fire_Up_Distractor.gif"",""img/Fire_Up_Distractor.gif"",""img/Fire_Up_Distractor.gif""]","5","targetDown_distractorsUp"
"","","","","","html-keyboard-response","16","142389","0.0-14.0-0.0-0.1","601ae161bca3983decaca14d","619531dcf66c91622fa1b861","61959621ea5e274bdae7ccfe","null","","null","","","","","main_T1_ITI","","","","",""
"","","","","","visual-search-circle","17","145564","0.0-14.0-0.0-1.1","601ae161bca3983decaca14d","619531dcf66c91622fa1b861","61959621ea5e274bdae7ccfe","2158","","d","false","[[431,30],[30,168],[168,569],[569,431]]","false","4","main_T2_Trial","s","img/Fire_Up_Target.gif","[""img/Fire_Down_Distractor.gif"",""img/Fire_Down_Distractor.gif"",""img/Fire_Down_Distractor.gif"",""img/Fire_Down_Distractor.gif"",""img/Fire_Down_Distractor.gif"",""img/Fire_Down_Distractor.gif"",""img/Fire_Down_Distractor.gif"",""img/Fire_Down_Distractor.gif"",""img/Fire_Down_Distractor.gif"",""img/Fire_Down_Distractor.gif"",""img/Fire_Down_Distractor.gif"",""img/Fire_Down_Distractor.gif""]","4","targetUp_distractorsDown"
"","","","","","html-keyboard-response","18","145565","0.0-14.0-0.0-0.2","601ae161bca3983decaca14d","619531dcf66c91622fa1b861","61959621ea5e274bdae7ccfe","null","","null","","","","","main_T1_ITI","","","","",""
"","","","","","visual-search-circle","19","148408","0.0-14.0-0.0-1.2","601ae161bca3983decaca14d","619531dcf66c91622fa1b861","61959621ea5e274bdae7ccfe","1835","","s","true","[[305,0],[91,84],[0,294],[84,508],[294,599],[508,515],[599,305],[515,91]]","false","8","main_T2_Trial","s","img/Fire_Up_Target.gif","[""img/Fire_Down_Distractor.gif"",""img/Fire_Down_Distractor.gif"",""img/Fire_Down_Distractor.gif"",""img/Fire_Down_Distractor.gif"",""img/Fire_Down_Distractor.gif"",""img/Fire_Down_Distractor.gif"",""img/Fire_Down_Distractor.gif"",""img/Fire_Down_Distractor.gif"",""img/Fire_Down_Distractor.gif"",""img/Fire_Down_Distractor.gif"",""img/Fire_Down_Distractor.gif"",""img/Fire_Down_Distractor.gif""]","8","targetUp_distractorsDown"
"","","","","","html-keyboard-response","20","148412","0.0-14.0-0.0-0.3","601ae161bca3983decaca14d","619531dcf66c91622fa1b861","61959621ea5e274bdae7ccfe","null","","null","","","","","main_T1_ITI","","","","",""
"","","","","","visual-search-circle","21","150285","0.0-14.0-0.0-1.3","601ae161bca3983decaca14d","619531dcf66c91622fa1b861","61959621ea5e274bdae7ccfe","858","","d","true","[[320,0],[21,187],[107,529],[458,554],[591,227]]","true","5","main_T2_Trial","d","img/Fire_Up_Target.gif","[""img/Fire_Down_Distractor.gif"",""img/Fire_Down_Distractor.gif"",""img/Fire_Down_Distractor.gif"",""img/Fire_Down_Distractor.gif"",""img/Fire_Down_Distractor.gif"",""img/Fire_Down_Distractor.gif"",""img/Fire_Down_Distractor.gif"",""img/Fire_Down_Distractor.gif"",""img/Fire_Down_Distractor.gif"",""img/Fire_Down_Distractor.gif"",""img/Fire_Down_Distractor.gif"",""img/Fire_Down_Distractor.gif""]","5","targetUp_distractorsDown"
"","","","","","html-keyboard-response","22","150286","0.0-14.0-0.0-0.4","601ae161bca3983decaca14d","619531dcf66c91622fa1b861","61959621ea5e274bdae7ccfe","null","","null","","","","","main_T1_ITI","","","","",""
"","","","","","visual-search-circle","23","155800","0.0-14.0-0.0-1.4","601ae161bca3983decaca14d","619531dcf66c91622fa1b861","61959621ea5e274bdae7ccfe","4505","","s","true","[[515,508],[508,84],[84,91],[91,515]]","false","4","main_T2_Trial","s","img/Fire_Up_Target.gif","[""img/Fire_Down_Distractor.gif"",""img/Fire_Down_Distractor.gif"",""img/Fire_Down_Distractor.gif"",""img/Fire_Down_Distractor.gif"",""img/Fire_Down_Distractor.gif"",""img/Fire_Down_Distractor.gif"",""img/Fire_Down_Distractor.gif"",""img/Fire_Down_Distractor.gif"",""img/Fire_Down_Distractor.gif"",""img/Fire_Down_Distractor.gif"",""img/Fire_Down_Distractor.gif"",""img/Fire_Down_Distractor.gif""]","4","targetUp_distractorsDown"
"","","","","","html-keyboard-response","24","155801","0.0-14.0-0.0-0.5","601ae161bca3983decaca14d","619531dcf66c91622fa1b861","61959621ea5e274bdae7ccfe","null","","null","","","","","main_T1_ITI","","","","",""
"","","","","","visual-search-circle","25","157960","0.0-14.0-0.0-1.5","601ae161bca3983decaca14d","619531dcf66c91622fa1b861","61959621ea5e274bdae7ccfe","1136","","d","true","[[417,576],[598,273],[367,7],[42,145],[73,496]]","true","5","main_T2_Trial","d","img/Fire_Up_Target.gif","[""img/Fire_Down_Distractor.gif"",""img/Fire_Down_Distractor.gif"",""img/Fire_Down_Distractor.gif"",""img/Fire_Down_Distractor.gif"",""img/Fire_Down_Distractor.gif"",""img/Fire_Down_Distractor.gif"",""img/Fire_Down_Distractor.gif"",""img/Fire_Down_Distractor.gif"",""img/Fire_Down_Distractor.gif"",""img/Fire_Down_Distractor.gif"",""img/Fire_Down_Distractor.gif"",""img/Fire_Down_Distractor.gif""]","5","targetUp_distractorsDown"
"","","","","","html-keyboard-response","26","157963","0.0-14.0-0.0-0.6","601ae161bca3983decaca14d","619531dcf66c91622fa1b861","61959621ea5e274bdae7ccfe","null","","null","","","","","main_T1_ITI","","","","",""
"","","","","","visual-search-circle","27","160381","0.0-14.0-0.0-1.6","601ae161bca3983decaca14d","619531dcf66c91622fa1b861","61959621ea5e274bdae7ccfe","1405","","d","true","[[32,163],[14,392],[163,567],[392,585],[567,436],[585,207],[436,32],[207,14]]","true","8","main_T2_Trial","d","img/Fire_Up_Target.gif","[""img/Fire_Down_Distractor.gif"",""img/Fire_Down_Distractor.gif"",""img/Fire_Down_Distractor.gif"",""img/Fire_Down_Distractor.gif"",""img/Fire_Down_Distractor.gif"",""img/Fire_Down_Distractor.gif"",""img/Fire_Down_Distractor.gif"",""img/Fire_Down_Distractor.gif"",""img/Fire_Down_Distractor.gif"",""img/Fire_Down_Distractor.gif"",""img/Fire_Down_Distractor.gif"",""img/Fire_Down_Distractor.gif""]","8","targetUp_distractorsDown"
"","","","","","html-keyboard-response","28","160385","0.0-14.0-0.0-0.7","601ae161bca3983decaca14d","619531dcf66c91622fa1b861","61959621ea5e274bdae7ccfe","null","","null","","","","","main_T1_ITI","","","","",""
"","","","","","visual-search-circle","29","162282","0.0-14.0-0.0-1.7","601ae161bca3983decaca14d","619531dcf66c91622fa1b861","61959621ea5e274bdae7ccfe","880","","s","true","[[84,91],[2,338],[144,556],[404,581],[584,394],[551,135],[328,1]]","false","7","main_T2_Trial","s","img/Fire_Up_Target.gif","[""img/Fire_Down_Distractor.gif"",""img/Fire_Down_Distractor.gif"",""img/Fire_Down_Distractor.gif"",""img/Fire_Down_Distractor.gif"",""img/Fire_Down_Distractor.gif"",""img/Fire_Down_Distractor.gif"",""img/Fire_Down_Distractor.gif"",""img/Fire_Down_Distractor.gif"",""img/Fire_Down_Distractor.gif"",""img/Fire_Down_Distractor.gif"",""img/Fire_Down_Distractor.gif"",""img/Fire_Down_Distractor.gif""]","7","targetUp_distractorsDown"
"","","","","","html-keyboard-response","30","162283","0.0-14.0-0.0-0.8","601ae161bca3983decaca14d","619531dcf66c91622fa1b861","61959621ea5e274bdae7ccfe","null","","null","","","","","main_T1_ITI","","","","",""
"","","","","","visual-search-circle","31","164432","0.0-14.0-0.0-1.8","601ae161bca3983decaca14d","619531dcf66c91622fa1b861","61959621ea5e274bdae7ccfe","1140","","d","true","[[463,48],[111,66],[19,407],[315,599],[589,377]]","true","5","main_T2_Trial","d","img/Fire_Down_Target.gif","[""img/Fire_Up_Distractor.gif"",""img/Fire_Up_Distractor.gif"",""img/Fire_Up_Distractor.gif"",""img/Fire_Up_Distractor.gif"",""img/Fire_Up_Distractor.gif"",""img/Fire_Up_Distractor.gif"",""img/Fire_Up_Distractor.gif"",""img/Fire_Up_Distractor.gif"",""img/Fire_Up_Distractor.gif"",""img/Fire_Up_Distractor.gif"",""img/Fire_Up_Distractor.gif"",""img/Fire_Up_Distractor.gif""]","5","targetDown_distractorsUp"
"","","","","","html-keyboard-response","32","164432","0.0-14.0-0.0-0.9","601ae161bca3983decaca14d","619531dcf66c91622fa1b861","61959621ea5e274bdae7ccfe","null","","null","","","","","main_T1_ITI","","","","",""
"","","","","","visual-search-circle","33","168327","0.0-14.0-0.0-1.9","601ae161bca3983decaca14d","619531dcf66c91622fa1b861","61959621ea5e274bdae7ccfe","2882","","d","true","[[32,436],[239,593],[492,530],[599,293],[481,61],[226,9],[26,175]]","true","7","main_T2_Trial","d","img/Fire_Up_Target.gif","[""img/Fire_Down_Distractor.gif"",""img/Fire_Down_Distractor.gif"",""img/Fire_Down_Distractor.gif"",""img/Fire_Down_Distractor.gif"",""img/Fire_Down_Distractor.gif"",""img/Fire_Down_Distractor.gif"",""img/Fire_Down_Distractor.gif"",""img/Fire_Down_Distractor.gif"",""img/Fire_Down_Distractor.gif"",""img/Fire_Down_Distractor.gif"",""img/Fire_Down_Distractor.gif"",""img/Fire_Down_Distractor.gif""]","7","targetUp_distractorsDown"
"","","","","","html-keyboard-response","34","168328","0.0-14.0-0.0-0.10","601ae161bca3983decaca14d","619531dcf66c91622fa1b861","61959621ea5e274bdae7ccfe","null","","null","","","","","main_T1_ITI","","","","",""
"","","","","","visual-search-circle","35","170318","0.0-14.0-0.0-1.10","601ae161bca3983decaca14d","619531dcf66c91622fa1b861","61959621ea5e274bdae7ccfe","985","","d","true","[[30,168],[16,397],[168,569],[397,583],[569,431],[583,202],[431,30],[202,16]]","true","8","main_T2_Trial","d","img/Fire_Down_Target.gif","[""img/Fire_Up_Distractor.gif"",""img/Fire_Up_Distractor.gif"",""img/Fire_Up_Distractor.gif"",""img/Fire_Up_Distractor.gif"",""img/Fire_Up_Distractor.gif"",""img/Fire_Up_Distractor.gif"",""img/Fire_Up_Distractor.gif"",""img/Fire_Up_Distractor.gif"",""img/Fire_Up_Distractor.gif"",""img/Fire_Up_Distractor.gif"",""img/Fire_Up_Distractor.gif"",""img/Fire_Up_Distractor.gif""]","8","targetDown_distractorsUp"
"","","","","","html-keyboard-response","36","170321","0.0-14.0-0.0-0.11","601ae161bca3983decaca14d","619531dcf66c91622fa1b861","61959621ea5e274bdae7ccfe","null","","null","","","","","main_T1_ITI","","","","",""
"","","","","","visual-search-circle","37","173274","0.0-14.0-0.0-1.11","601ae161bca3983decaca14d","619531dcf66c91622fa1b861","61959621ea5e274bdae7ccfe","1943","","d","true","[[341,2],[63,115],[21,412],[258,597],[536,484],[578,187]]","true","6","main_T2_Trial","d","img/Fire_Up_Target.gif","[""img/Fire_Down_Distractor.gif"",""img/Fire_Down_Distractor.gif"",""img/Fire_Down_Distractor.gif"",""img/Fire_Down_Distractor.gif"",""img/Fire_Down_Distractor.gif"",""img/Fire_Down_Distractor.gif"",""img/Fire_Down_Distractor.gif"",""img/Fire_Down_Distractor.gif"",""img/Fire_Down_Distractor.gif"",""img/Fire_Down_Distractor.gif"",""img/Fire_Down_Distractor.gif"",""img/Fire_Down_Distractor.gif""]","6","targetUp_distractorsDown"
"","","","","","html-keyboard-response","38","173274","0.0-14.0-0.0-0.12","601ae161bca3983decaca14d","619531dcf66c91622fa1b861","61959621ea5e274bdae7ccfe","null","","null","","","","","main_T1_ITI","","","","",""
"","","","","","visual-search-circle","39","175872","0.0-14.0-0.0-1.12","601ae161bca3983decaca14d","619531dcf66c91622fa1b861","61959621ea5e274bdae7ccfe","1581","","d","true","[[367,592],[598,326],[417,23],[73,103],[42,454]]","true","5","main_T2_Trial","d","img/Fire_Down_Target.gif","[""img/Fire_Up_Distractor.gif"",""img/Fire_Up_Distractor.gif"",""img/Fire_Up_Distractor.gif"",""img/Fire_Up_Distractor.gif"",""img/Fire_Up_Distractor.gif"",""img/Fire_Up_Distractor.gif"",""img/Fire_Up_Distractor.gif"",""img/Fire_Up_Distractor.gif"",""img/Fire_Up_Distractor.gif"",""img/Fire_Up_Distractor.gif"",""img/Fire_Up_Distractor.gif"",""img/Fire_Up_Distractor.gif""]","5","targetDown_distractorsUp"
"","","","","","html-keyboard-response","40","175874","0.0-14.0-0.0-0.13","601ae161bca3983decaca14d","619531dcf66c91622fa1b861","61959621ea5e274bdae7ccfe","null","","null","","","","","main_T1_ITI","","","","",""
"","","","","","visual-search-circle","41","180123","0.0-14.0-0.0-1.13","601ae161bca3983decaca14d","619531dcf66c91622fa1b861","61959621ea5e274bdae7ccfe","3242","","s","false","[[103,526],[320,599],[526,496],[599,279],[496,73],[279,0],[73,103],[0,320]]","true","8","main_T2_Trial","d","img/Fire_Up_Target.gif","[""img/Fire_Down_Distractor.gif"",""img/Fire_Down_Distractor.gif"",""img/Fire_Down_Distractor.gif"",""img/Fire_Down_Distractor.gif"",""img/Fire_Down_Distractor.gif"",""img/Fire_Down_Distractor.gif"",""img/Fire_Down_Distractor.gif"",""img/Fire_Down_Distractor.gif"",""img/Fire_Down_Distractor.gif"",""img/Fire_Down_Distractor.gif"",""img/Fire_Down_Distractor.gif"",""img/Fire_Down_Distractor.gif""]","8","targetUp_distractorsDown"
"","","","","","html-keyboard-response","42","180125","0.0-14.0-0.0-0.14","601ae161bca3983decaca14d","619531dcf66c91622fa1b861","61959621ea5e274bdae7ccfe","null","","null","","","","","main_T1_ITI","","","","",""
"","","","","","visual-search-circle","43","181965","0.0-14.0-0.0-1.14","601ae161bca3983decaca14d","619531dcf66c91622fa1b861","61959621ea5e274bdae7ccfe","827","","s","true","[[454,557],[557,145],[145,42],[42,454]]","false","4","main_T2_Trial","s","img/Fire_Down_Target.gif","[""img/Fire_Up_Distractor.gif"",""img/Fire_Up_Distractor.gif"",""img/Fire_Up_Distractor.gif"",""img/Fire_Up_Distractor.gif"",""img/Fire_Up_Distractor.gif"",""img/Fire_Up_Distractor.gif"",""img/Fire_Up_Distractor.gif"",""img/Fire_Up_Distractor.gif"",""img/Fire_Up_Distractor.gif"",""img/Fire_Up_Distractor.gif"",""img/Fire_Up_Distractor.gif"",""img/Fire_Up_Distractor.gif""]","4","targetDown_distractorsUp"
"","","","","","html-keyboard-response","44","181971","0.0-14.0-0.0-0.15","601ae161bca3983decaca14d","619531dcf66c91622fa1b861","61959621ea5e274bdae7ccfe","null","","null","","","","","main_T1_ITI","","","","",""
"","","","","","visual-search-circle","45","184113","0.0-14.0-0.0-1.15","601ae161bca3983decaca14d","619531dcf66c91622fa1b861","61959621ea5e274bdae7ccfe","1136","","s","true","[[529,107],[292,0],[60,118],[9,374],[176,573],[436,566],[594,359]]","false","7","main_T2_Trial","s","img/Fire_Up_Target.gif","[""img/Fire_Down_Distractor.gif"",""img/Fire_Down_Distractor.gif"",""img/Fire_Down_Distractor.gif"",""img/Fire_Down_Distractor.gif"",""img/Fire_Down_Distractor.gif"",""img/Fire_Down_Distractor.gif"",""img/Fire_Down_Distractor.gif"",""img/Fire_Down_Distractor.gif"",""img/Fire_Down_Distractor.gif"",""img/Fire_Down_Distractor.gif"",""img/Fire_Down_Distractor.gif"",""img/Fire_Down_Distractor.gif""]","7","targetUp_distractorsDown"
"","","","","","html-keyboard-response","46","184113","0.0-14.0-0.0-0.16","601ae161bca3983decaca14d","619531dcf66c91622fa1b861","61959621ea5e274bdae7ccfe","null","","null","","","","","main_T1_ITI","","","","",""
"","","","","","visual-search-circle","47","187458","0.0-14.0-0.0-1.16","601ae161bca3983decaca14d","619531dcf66c91622fa1b861","61959621ea5e274bdae7ccfe","2337","","s","true","[[591,227],[320,0],[21,187],[107,529],[458,554]]","false","5","main_T2_Trial","s","img/Fire_Up_Target.gif","[""img/Fire_Down_Distractor.gif"",""img/Fire_Down_Distractor.gif"",""img/Fire_Down_Distractor.gif"",""img/Fire_Down_Distractor.gif"",""img/Fire_Down_Distractor.gif"",""img/Fire_Down_Distractor.gif"",""img/Fire_Down_Distractor.gif"",""img/Fire_Down_Distractor.gif"",""img/Fire_Down_Distractor.gif"",""img/Fire_Down_Distractor.gif"",""img/Fire_Down_Distractor.gif"",""img/Fire_Down_Distractor.gif""]","5","targetUp_distractorsDown"
"","","","","","html-keyboard-response","48","187459","0.0-14.0-0.0-0.17","601ae161bca3983decaca14d","619531dcf66c91622fa1b861","61959621ea5e274bdae7ccfe","null","","null","","","","","main_T1_ITI","","","","",""
"","","","","","visual-search-circle","49","189543","0.0-14.0-0.0-1.17","601ae161bca3983decaca14d","619531dcf66c91622fa1b861","61959621ea5e274bdae7ccfe","1077","","d","true","[[4,247],[159,564],[508,515],[569,168],[258,2]]","true","5","main_T2_Trial","d","img/Fire_Down_Target.gif","[""img/Fire_Up_Distractor.gif"",""img/Fire_Up_Distractor.gif"",""img/Fire_Up_Distractor.gif"",""img/Fire_Up_Distractor.gif"",""img/Fire_Up_Distractor.gif"",""img/Fire_Up_Distractor.gif"",""img/Fire_Up_Distractor.gif"",""img/Fire_Up_Distractor.gif"",""img/Fire_Up_Distractor.gif"",""img/Fire_Up_Distractor.gif"",""img/Fire_Up_Distractor.gif"",""img/Fire_Up_Distractor.gif""]","5","targetDown_distractorsUp"
"","","","","","html-keyboard-response","50","189544","0.0-14.0-0.0-0.18","601ae161bca3983decaca14d","619531dcf66c91622fa1b861","61959621ea5e274bdae7ccfe","null","","null","","","","","main_T1_ITI","","","","",""
"","","","","","visual-search-circle","51","191559","0.0-14.0-0.0-1.18","601ae161bca3983decaca14d","619531dcf66c91622fa1b861","61959621ea5e274bdae7ccfe","1012","","s","true","[[500,77],[150,40],[6,362],[268,598],[574,422]]","false","5","main_T2_Trial","s","img/Fire_Down_Target.gif","[""img/Fire_Up_Distractor.gif"",""img/Fire_Up_Distractor.gif"",""img/Fire_Up_Distractor.gif"",""img/Fire_Up_Distractor.gif"",""img/Fire_Up_Distractor.gif"",""img/Fire_Up_Distractor.gif"",""img/Fire_Up_Distractor.gif"",""img/Fire_Up_Distractor.gif"",""img/Fire_Up_Distractor.gif"",""img/Fire_Up_Distractor.gif"",""img/Fire_Up_Distractor.gif"",""img/Fire_Up_Distractor.gif""]","5","targetDown_distractorsUp"
"","","","","","html-keyboard-response","52","198279","0.0-14.0-0.0-0.19","601ae161bca3983decaca14d","619531dcf66c91622fa1b861","61959621ea5e274bdae7ccfe","6719","Wow! You've completed 20 out of 160 trials! </p> <p>  </p><p> Take a quick break, then press any key when you're ready to continue."," ","","","","","main_T1_ITI","","","","",""
"","","","","","visual-search-circle","53","200620","0.0-14.0-0.0-1.19","601ae161bca3983decaca14d","619531dcf66c91622fa1b861","61959621ea5e274bdae7ccfe","1332","","d","true","[[273,1],[28,173],[54,472],[326,598],[571,426],[545,127]]","true","6","main_T2_Trial","d","img/Fire_Down_Target.gif","[""img/Fire_Up_Distractor.gif"",""img/Fire_Up_Distractor.gif"",""img/Fire_Up_Distractor.gif"",""img/Fire_Up_Distractor.gif"",""img/Fire_Up_Distractor.gif"",""img/Fire_Up_Distractor.gif"",""img/Fire_Up_Distractor.gif"",""img/Fire_Up_Distractor.gif"",""img/Fire_Up_Distractor.gif"",""img/Fire_Up_Distractor.gif"",""img/Fire_Up_Distractor.gif"",""img/Fire_Up_Distractor.gif""]","6","targetDown_distractorsUp"
"","","","","","html-keyboard-response","54","200625","0.0-14.0-0.0-0.20","601ae161bca3983decaca14d","619531dcf66c91622fa1b861","61959621ea5e274bdae7ccfe","null","","null","","","","","main_T1_ITI","","","","",""
"","","","","","visual-search-circle","55","203396","0.0-14.0-0.0-1.20","601ae161bca3983decaca14d","619531dcf66c91622fa1b861","61959621ea5e274bdae7ccfe","1755","","s","true","[[458,45],[232,7],[45,141],[7,367],[141,554],[367,592],[554,458],[592,232]]","false","8","main_T2_Trial","s","img/Fire_Down_Target.gif","[""img/Fire_Up_Distractor.gif"",""img/Fire_Up_Distractor.gif"",""img/Fire_Up_Distractor.gif"",""img/Fire_Up_Distractor.gif"",""img/Fire_Up_Distractor.gif"",""img/Fire_Up_Distractor.gif"",""img/Fire_Up_Distractor.gif"",""img/Fire_Up_Distractor.gif"",""img/Fire_Up_Distractor.gif"",""img/Fire_Up_Distractor.gif"",""img/Fire_Up_Distractor.gif"",""img/Fire_Up_Distractor.gif""]","8","targetDown_distractorsUp"
"","","","","","html-keyboard-response","56","203400","0.0-14.0-0.0-0.21","601ae161bca3983decaca14d","619531dcf66c91622fa1b861","61959621ea5e274bdae7ccfe","null","","null","","","","","main_T1_ITI","","","","",""
"","","","","","visual-search-circle","57","205475","0.0-14.0-0.0-1.21","601ae161bca3983decaca14d","619531dcf66c91622fa1b861","61959621ea5e274bdae7ccfe","1057","","s","true","[[192,19],[0,315],[222,589],[551,463],[533,111]]","false","5","main_T2_Trial","s","img/Fire_Down_Target.gif","[""img/Fire_Up_Distractor.gif"",""img/Fire_Up_Distractor.gif"",""img/Fire_Up_Distractor.gif"",""img/Fire_Up_Distractor.gif"",""img/Fire_Up_Distractor.gif"",""img/Fire_Up_Distractor.gif"",""img/Fire_Up_Distractor.gif"",""img/Fire_Up_Distractor.gif"",""img/Fire_Up_Distractor.gif"",""img/Fire_Up_Distractor.gif"",""img/Fire_Up_Distractor.gif"",""img/Fire_Up_Distractor.gif""]","5","targetDown_distractorsUp"
"","","","","","html-keyboard-response","58","205475","0.0-14.0-0.0-0.22","601ae161bca3983decaca14d","619531dcf66c91622fa1b861","61959621ea5e274bdae7ccfe","null","","null","","","","","main_T1_ITI","","","","",""
"","","","","","visual-search-circle","59","207568","0.0-14.0-0.0-1.22","601ae161bca3983decaca14d","619531dcf66c91622fa1b861","61959621ea5e274bdae7ccfe","1075","","s","true","[[440,35],[180,24],[10,221],[58,477],[288,599],[526,496],[594,244]]","false","7","main_T2_Trial","s","img/Fire_Up_Target.gif","[""img/Fire_Down_Distractor.gif"",""img/Fire_Down_Distractor.gif"",""img/Fire_Down_Distractor.gif"",""img/Fire_Down_Distractor.gif"",""img/Fire_Down_Distractor.gif"",""img/Fire_Down_Distractor.gif"",""img/Fire_Down_Distractor.gif"",""img/Fire_Down_Distractor.gif"",""img/Fire_Down_Distractor.gif"",""img/Fire_Down_Distractor.gif"",""img/Fire_Down_Distractor.gif"",""img/Fire_Down_Distractor.gif""]","7","targetUp_distractorsDown"
"","","","","","html-keyboard-response","60","207569","0.0-14.0-0.0-0.23","601ae161bca3983decaca14d","619531dcf66c91622fa1b861","61959621ea5e274bdae7ccfe","null","","null","","","","","main_T1_ITI","","","","",""
"","","","","","visual-search-circle","61","209487","0.0-14.0-0.0-1.23","601ae161bca3983decaca14d","619531dcf66c91622fa1b861","61959621ea5e274bdae7ccfe","905","","s","true","[[562,154],[349,4],[99,76],[0,317],[126,544],[383,588],[577,414]]","false","7","main_T2_Trial","s","img/Fire_Down_Target.gif","[""img/Fire_Up_Distractor.gif"",""img/Fire_Up_Distractor.gif"",""img/Fire_Up_Distractor.gif"",""img/Fire_Up_Distractor.gif"",""img/Fire_Up_Distractor.gif"",""img/Fire_Up_Distractor.gif"",""img/Fire_Up_Distractor.gif"",""img/Fire_Up_Distractor.gif"",""img/Fire_Up_Distractor.gif"",""img/Fire_Up_Distractor.gif"",""img/Fire_Up_Distractor.gif"",""img/Fire_Up_Distractor.gif""]","7","targetDown_distractorsUp"
"","","","","","html-keyboard-response","62","209488","0.0-14.0-0.0-0.24","601ae161bca3983decaca14d","619531dcf66c91622fa1b861","61959621ea5e274bdae7ccfe","null","","null","","","","","main_T1_ITI","","","","",""
"","","","","","visual-search-circle","63","211558","0.0-14.0-0.0-1.24","601ae161bca3983decaca14d","619531dcf66c91622fa1b861","61959621ea5e274bdae7ccfe","1061","","d","true","[[2,336],[182,576],[480,539],[597,263],[417,23],[119,60]]","true","6","main_T2_Trial","d","img/Fire_Down_Target.gif","[""img/Fire_Up_Distractor.gif"",""img/Fire_Up_Distractor.gif"",""img/Fire_Up_Distractor.gif"",""img/Fire_Up_Distractor.gif"",""img/Fire_Up_Distractor.gif"",""img/Fire_Up_Distractor.gif"",""img/Fire_Up_Distractor.gif"",""img/Fire_Up_Distractor.gif"",""img/Fire_Up_Distractor.gif"",""img/Fire_Up_Distractor.gif"",""img/Fire_Up_Distractor.gif"",""img/Fire_Up_Distractor.gif""]","6","targetDown_distractorsUp"
"","","","","","html-keyboard-response","64","211559","0.0-14.0-0.0-0.25","601ae161bca3983decaca14d","619531dcf66c91622fa1b861","61959621ea5e274bdae7ccfe","null","","null","","","","","main_T1_ITI","","","","",""
"","","","","","visual-search-circle","65","213583","0.0-14.0-0.0-1.25","601ae161bca3983decaca14d","619531dcf66c91622fa1b861","61959621ea5e274bdae7ccfe","1009","","s","true","[[127,54],[54,472],[472,545],[545,127]]","false","4","main_T2_Trial","s","img/Fire_Down_Target.gif","[""img/Fire_Up_Distractor.gif"",""img/Fire_Up_Distractor.gif"",""img/Fire_Up_Distractor.gif"",""img/Fire_Up_Distractor.gif"",""img/Fire_Up_Distractor.gif"",""img/Fire_Up_Distractor.gif"",""img/Fire_Up_Distractor.gif"",""img/Fire_Up_Distractor.gif"",""img/Fire_Up_Distractor.gif"",""img/Fire_Up_Distractor.gif"",""img/Fire_Up_Distractor.gif"",""img/Fire_Up_Distractor.gif""]","4","targetDown_distractorsUp"
"","","","","","html-keyboard-response","66","213585","0.0-14.0-0.0-0.26","601ae161bca3983decaca14d","619531dcf66c91622fa1b861","61959621ea5e274bdae7ccfe","null","","null","","","","","main_T1_ITI","","","","",""
"","","","","","visual-search-circle","67","215907","0.0-14.0-0.0-1.26","601ae161bca3983decaca14d","619531dcf66c91622fa1b861","61959621ea5e274bdae7ccfe","1307","","s","true","[[0,315],[99,522],[315,599],[522,500],[599,284],[500,77],[284,0],[77,99]]","false","8","main_T2_Trial","s","img/Fire_Up_Target.gif","[""img/Fire_Down_Distractor.gif"",""img/Fire_Down_Distractor.gif"",""img/Fire_Down_Distractor.gif"",""img/Fire_Down_Distractor.gif"",""img/Fire_Down_Distractor.gif"",""img/Fire_Down_Distractor.gif"",""img/Fire_Down_Distractor.gif"",""img/Fire_Down_Distractor.gif"",""img/Fire_Down_Distractor.gif"",""img/Fire_Down_Distractor.gif"",""img/Fire_Down_Distractor.gif"",""img/Fire_Down_Distractor.gif""]","8","targetUp_distractorsDown"
"","","","","","html-keyboard-response","68","215908","0.0-14.0-0.0-0.27","601ae161bca3983decaca14d","619531dcf66c91622fa1b861","61959621ea5e274bdae7ccfe","null","","null","","","","","main_T1_ITI","","","","",""
"","","","","","visual-search-circle","69","218542","0.0-14.0-0.0-1.27","601ae161bca3983decaca14d","619531dcf66c91622fa1b861","61959621ea5e274bdae7ccfe","1618","","d","true","[[107,529],[359,594],[566,436],[573,176],[374,9],[118,60],[0,292]]","true","7","main_T2_Trial","d","img/Fire_Up_Target.gif","[""img/Fire_Down_Distractor.gif"",""img/Fire_Down_Distractor.gif"",""img/Fire_Down_Distractor.gif"",""img/Fire_Down_Distractor.gif"",""img/Fire_Down_Distractor.gif"",""img/Fire_Down_Distractor.gif"",""img/Fire_Down_Distractor.gif"",""img/Fire_Down_Distractor.gif"",""img/Fire_Down_Distractor.gif"",""img/Fire_Down_Distractor.gif"",""img/Fire_Down_Distractor.gif"",""img/Fire_Down_Distractor.gif""]","7","targetUp_distractorsDown"
"","","","","","html-keyboard-response","70","218543","0.0-14.0-0.0-0.28","601ae161bca3983decaca14d","619531dcf66c91622fa1b861","61959621ea5e274bdae7ccfe","null","","null","","","","","main_T1_ITI","","","","",""
"","","","","","visual-search-circle","71","224663","0.0-14.0-0.0-1.28","601ae161bca3983decaca14d","619531dcf66c91622fa1b861","61959621ea5e274bdae7ccfe","5105","","s","true","[[63,484],[297,599],[532,489],[593,236],[432,31],[172,28],[8,230]]","false","7","main_T2_Trial","s","img/Fire_Down_Target.gif","[""img/Fire_Up_Distractor.gif"",""img/Fire_Up_Distractor.gif"",""img/Fire_Up_Distractor.gif"",""img/Fire_Up_Distractor.gif"",""img/Fire_Up_Distractor.gif"",""img/Fire_Up_Distractor.gif"",""img/Fire_Up_Distractor.gif"",""img/Fire_Up_Distractor.gif"",""img/Fire_Up_Distractor.gif"",""img/Fire_Up_Distractor.gif"",""img/Fire_Up_Distractor.gif"",""img/Fire_Up_Distractor.gif""]","7","targetDown_distractorsUp"
"","","","","","html-keyboard-response","72","224665","0.0-14.0-0.0-0.29","601ae161bca3983decaca14d","619531dcf66c91622fa1b861","61959621ea5e274bdae7ccfe","null","","null","","","","","main_T1_ITI","","","","",""
"","","","","","visual-search-circle","73","227567","0.0-14.0-0.0-1.29","601ae161bca3983decaca14d","619531dcf66c91622fa1b861","61959621ea5e274bdae7ccfe","1898","","s","true","[[331,598],[574,422],[542,123],[268,1],[25,177],[57,476]]","false","6","main_T2_Trial","s","img/Fire_Down_Target.gif","[""img/Fire_Up_Distractor.gif"",""img/Fire_Up_Distractor.gif"",""img/Fire_Up_Distractor.gif"",""img/Fire_Up_Distractor.gif"",""img/Fire_Up_Distractor.gif"",""img/Fire_Up_Distractor.gif"",""img/Fire_Up_Distractor.gif"",""img/Fire_Up_Distractor.gif"",""img/Fire_Up_Distractor.gif"",""img/Fire_Up_Distractor.gif"",""img/Fire_Up_Distractor.gif"",""img/Fire_Up_Distractor.gif""]","6","targetDown_distractorsUp"
"","","","","","html-keyboard-response","74","227570","0.0-14.0-0.0-0.30","601ae161bca3983decaca14d","619531dcf66c91622fa1b861","61959621ea5e274bdae7ccfe","null","","null","","","","","main_T1_ITI","","","","",""
"","","","","","visual-search-circle","75","230921","0.0-14.0-0.0-1.30","601ae161bca3983decaca14d","619531dcf66c91622fa1b861","61959621ea5e274bdae7ccfe","2333","","s","true","[[0,320],[103,526],[320,599],[526,496],[599,279],[496,73],[279,0],[73,103]]","false","8","main_T2_Trial","s","img/Fire_Down_Target.gif","[""img/Fire_Up_Distractor.gif"",""img/Fire_Up_Distractor.gif"",""img/Fire_Up_Distractor.gif"",""img/Fire_Up_Distractor.gif"",""img/Fire_Up_Distractor.gif"",""img/Fire_Up_Distractor.gif"",""img/Fire_Up_Distractor.gif"",""img/Fire_Up_Distractor.gif"",""img/Fire_Up_Distractor.gif"",""img/Fire_Up_Distractor.gif"",""img/Fire_Up_Distractor.gif"",""img/Fire_Up_Distractor.gif""]","8","targetDown_distractorsUp"
"","","","","","html-keyboard-response","76","230922","0.0-14.0-0.0-0.31","601ae161bca3983decaca14d","619531dcf66c91622fa1b861","61959621ea5e274bdae7ccfe","null","","null","","","","","main_T1_ITI","","","","",""
"","","","","","visual-search-circle","77","233049","0.0-14.0-0.0-1.31","601ae161bca3983decaca14d","619531dcf66c91622fa1b861","61959621ea5e274bdae7ccfe","1124","","s","true","[[387,586],[586,212],[212,13],[13,387]]","false","4","main_T2_Trial","s","img/Fire_Down_Target.gif","[""img/Fire_Up_Distractor.gif"",""img/Fire_Up_Distractor.gif"",""img/Fire_Up_Distractor.gif"",""img/Fire_Up_Distractor.gif"",""img/Fire_Up_Distractor.gif"",""img/Fire_Up_Distractor.gif"",""img/Fire_Up_Distractor.gif"",""img/Fire_Up_Distractor.gif"",""img/Fire_Up_Distractor.gif"",""img/Fire_Up_Distractor.gif"",""img/Fire_Up_Distractor.gif"",""img/Fire_Up_Distractor.gif""]","4","targetDown_distractorsUp"
"","","","","","html-keyboard-response","78","233051","0.0-14.0-0.0-0.32","601ae161bca3983decaca14d","619531dcf66c91622fa1b861","61959621ea5e274bdae7ccfe","null","","null","","","","","main_T1_ITI","","","","",""
"","","","","","visual-search-circle","79","235022","0.0-14.0-0.0-1.32","601ae161bca3983decaca14d","619531dcf66c91622fa1b861","61959621ea5e274bdae7ccfe","959","","d","true","[[141,45],[45,458],[458,554],[554,141]]","true","4","main_T2_Trial","d","img/Fire_Up_Target.gif","[""img/Fire_Down_Distractor.gif"",""img/Fire_Down_Distractor.gif"",""img/Fire_Down_Distractor.gif"",""img/Fire_Down_Distractor.gif"",""img/Fire_Down_Distractor.gif"",""img/Fire_Down_Distractor.gif"",""img/Fire_Down_Distractor.gif"",""img/Fire_Down_Distractor.gif"",""img/Fire_Down_Distractor.gif"",""img/Fire_Down_Distractor.gif"",""img/Fire_Down_Distractor.gif"",""img/Fire_Down_Distractor.gif""]","4","targetUp_distractorsDown"
"","","","","","html-keyboard-response","80","235023","0.0-14.0-0.0-0.33","601ae161bca3983decaca14d","619531dcf66c91622fa1b861","61959621ea5e274bdae7ccfe","null","","null","","","","","main_T1_ITI","","","","",""
"","","","","","visual-search-circle","81","238822","0.0-14.0-0.0-1.33","601ae161bca3983decaca14d","619531dcf66c91622fa1b861","61959621ea5e274bdae7ccfe","2791","","s","true","[[127,545],[480,539],[583,202],[294,0],[13,212]]","false","5","main_T2_Trial","s","img/Fire_Up_Target.gif","[""img/Fire_Down_Distractor.gif"",""img/Fire_Down_Distractor.gif"",""img/Fire_Down_Distractor.gif"",""img/Fire_Down_Distractor.gif"",""img/Fire_Down_Distractor.gif"",""img/Fire_Down_Distractor.gif"",""img/Fire_Down_Distractor.gif"",""img/Fire_Down_Distractor.gif"",""img/Fire_Down_Distractor.gif"",""img/Fire_Down_Distractor.gif"",""img/Fire_Down_Distractor.gif"",""img/Fire_Down_Distractor.gif""]","5","targetUp_distractorsDown"
"","","","","","html-keyboard-response","82","238823","0.0-14.0-0.0-0.34","601ae161bca3983decaca14d","619531dcf66c91622fa1b861","61959621ea5e274bdae7ccfe","null","","null","","","","","main_T1_ITI","","","","",""
"","","","","","visual-search-circle","83","242215","0.0-14.0-0.0-1.34","601ae161bca3983decaca14d","619531dcf66c91622fa1b861","61959621ea5e274bdae7ccfe","2382","","s","true","[[326,1],[1,273],[273,598],[598,326]]","false","4","main_T2_Trial","s","img/Fire_Down_Target.gif","[""img/Fire_Up_Distractor.gif"",""img/Fire_Up_Distractor.gif"",""img/Fire_Up_Distractor.gif"",""img/Fire_Up_Distractor.gif"",""img/Fire_Up_Distractor.gif"",""img/Fire_Up_Distractor.gif"",""img/Fire_Up_Distractor.gif"",""img/Fire_Up_Distractor.gif"",""img/Fire_Up_Distractor.gif"",""img/Fire_Up_Distractor.gif"",""img/Fire_Up_Distractor.gif"",""img/Fire_Up_Distractor.gif""]","4","targetDown_distractorsUp"
"","","","","","html-keyboard-response","84","242216","0.0-14.0-0.0-0.35","601ae161bca3983decaca14d","619531dcf66c91622fa1b861","61959621ea5e274bdae7ccfe","null","","null","","","","","main_T1_ITI","","","","",""
"","","","","","visual-search-circle","85","244526","0.0-14.0-0.0-1.35","601ae161bca3983decaca14d","619531dcf66c91622fa1b861","61959621ea5e274bdae7ccfe","1295","","d","true","[[599,279],[431,30],[132,51],[0,320],[168,569],[467,548]]","true","6","main_T2_Trial","d","img/Fire_Down_Target.gif","[""img/Fire_Up_Distractor.gif"",""img/Fire_Up_Distractor.gif"",""img/Fire_Up_Distractor.gif"",""img/Fire_Up_Distractor.gif"",""img/Fire_Up_Distractor.gif"",""img/Fire_Up_Distractor.gif"",""img/Fire_Up_Distractor.gif"",""img/Fire_Up_Distractor.gif"",""img/Fire_Up_Distractor.gif"",""img/Fire_Up_Distractor.gif"",""img/Fire_Up_Distractor.gif"",""img/Fire_Up_Distractor.gif""]","6","targetDown_distractorsUp"
"","","","","","html-keyboard-response","86","244527","0.0-14.0-0.0-0.36","601ae161bca3983decaca14d","619531dcf66c91622fa1b861","61959621ea5e274bdae7ccfe","null","","null","","","","","main_T1_ITI","","","","",""
"","","","","","visual-search-circle","87","247584","0.0-14.0-0.0-1.36","601ae161bca3983decaca14d","619531dcf66c91622fa1b861","61959621ea5e274bdae7ccfe","2039","","d","true","[[1,326],[134,549],[391,585],[580,406],[557,146],[341,2],[93,82]]","true","7","main_T2_Trial","d","img/Fire_Down_Target.gif","[""img/Fire_Up_Distractor.gif"",""img/Fire_Up_Distractor.gif"",""img/Fire_Up_Distractor.gif"",""img/Fire_Up_Distractor.gif"",""img/Fire_Up_Distractor.gif"",""img/Fire_Up_Distractor.gif"",""img/Fire_Up_Distractor.gif"",""img/Fire_Up_Distractor.gif"",""img/Fire_Up_Distractor.gif"",""img/Fire_Up_Distractor.gif"",""img/Fire_Up_Distractor.gif"",""img/Fire_Up_Distractor.gif""]","7","targetDown_distractorsUp"
"","","","","","html-keyboard-response","88","247585","0.0-14.0-0.0-0.37","601ae161bca3983decaca14d","619531dcf66c91622fa1b861","61959621ea5e274bdae7ccfe","null","","null","","","","","main_T1_ITI","","","","",""
"","","","","","visual-search-circle","89","249901","0.0-14.0-0.0-1.37","601ae161bca3983decaca14d","619531dcf66c91622fa1b861","61959621ea5e274bdae7ccfe","1301","","s","true","[[500,77],[207,14],[6,237],[99,522],[392,585],[593,362]]","false","6","main_T2_Trial","s","img/Fire_Up_Target.gif","[""img/Fire_Down_Distractor.gif"",""img/Fire_Down_Distractor.gif"",""img/Fire_Down_Distractor.gif"",""img/Fire_Down_Distractor.gif"",""img/Fire_Down_Distractor.gif"",""img/Fire_Down_Distractor.gif"",""img/Fire_Down_Distractor.gif"",""img/Fire_Down_Distractor.gif"",""img/Fire_Down_Distractor.gif"",""img/Fire_Down_Distractor.gif"",""img/Fire_Down_Distractor.gif"",""img/Fire_Down_Distractor.gif""]","6","targetUp_distractorsDown"
"","","","","","html-keyboard-response","90","249901","0.0-14.0-0.0-0.38","601ae161bca3983decaca14d","619531dcf66c91622fa1b861","61959621ea5e274bdae7ccfe","null","","null","","","","","main_T1_ITI","","","","",""
"","","","","","visual-search-circle","91","252904","0.0-14.0-0.0-1.38","601ae161bca3983decaca14d","619531dcf66c91622fa1b861","61959621ea5e274bdae7ccfe","1988","","d","true","[[426,28],[166,31],[6,236],[67,489],[303,599],[536,484],[591,229]]","true","7","main_T2_Trial","d","img/Fire_Down_Target.gif","[""img/Fire_Up_Distractor.gif"",""img/Fire_Up_Distractor.gif"",""img/Fire_Up_Distractor.gif"",""img/Fire_Up_Distractor.gif"",""img/Fire_Up_Distractor.gif"",""img/Fire_Up_Distractor.gif"",""img/Fire_Up_Distractor.gif"",""img/Fire_Up_Distractor.gif"",""img/Fire_Up_Distractor.gif"",""img/Fire_Up_Distractor.gif"",""img/Fire_Up_Distractor.gif"",""img/Fire_Up_Distractor.gif""]","7","targetDown_distractorsUp"
"","","","","","html-keyboard-response","92","254937","0.0-14.0-0.0-0.39","601ae161bca3983decaca14d","619531dcf66c91622fa1b861","61959621ea5e274bdae7ccfe","2033","Wow! You've completed 40 out of 160 trials! </p> <p>  </p><p> Take a quick break, then press any key when you're ready to continue."," ","","","","","main_T1_ITI","","","","",""
"","","","","","visual-search-circle","93","258792","0.0-14.0-0.0-1.39","601ae161bca3983decaca14d","619531dcf66c91622fa1b861","61959621ea5e274bdae7ccfe","2845","","s","true","[[598,331],[533,111],[331,1],[111,66],[1,268],[66,488],[268,598],[488,533]]","false","8","main_T2_Trial","s","img/Fire_Down_Target.gif","[""img/Fire_Up_Distractor.gif"",""img/Fire_Up_Distractor.gif"",""img/Fire_Up_Distractor.gif"",""img/Fire_Up_Distractor.gif"",""img/Fire_Up_Distractor.gif"",""img/Fire_Up_Distractor.gif"",""img/Fire_Up_Distractor.gif"",""img/Fire_Up_Distractor.gif"",""img/Fire_Up_Distractor.gif"",""img/Fire_Up_Distractor.gif"",""img/Fire_Up_Distractor.gif"",""img/Fire_Up_Distractor.gif""]","8","targetDown_distractorsUp"
"","","","","","html-keyboard-response","94","258794","0.0-14.0-0.0-0.40","601ae161bca3983decaca14d","619531dcf66c91622fa1b861","61959621ea5e274bdae7ccfe","null","","null","","","","","main_T1_ITI","","","","",""
"","","","","","visual-search-circle","95","260965","0.0-14.0-0.0-1.40","601ae161bca3983decaca14d","619531dcf66c91622fa1b861","61959621ea5e274bdae7ccfe","1157","","d","true","[[119,60],[2,258],[60,480],[258,597],[480,539],[597,341],[539,119],[341,2]]","true","8","main_T2_Trial","d","img/Fire_Up_Target.gif","[""img/Fire_Down_Distractor.gif"",""img/Fire_Down_Distractor.gif"",""img/Fire_Down_Distractor.gif"",""img/Fire_Down_Distractor.gif"",""img/Fire_Down_Distractor.gif"",""img/Fire_Down_Distractor.gif"",""img/Fire_Down_Distractor.gif"",""img/Fire_Down_Distractor.gif"",""img/Fire_Down_Distractor.gif"",""img/Fire_Down_Distractor.gif"",""img/Fire_Down_Distractor.gif"",""img/Fire_Down_Distractor.gif""]","8","targetUp_distractorsDown"
"","","","","","html-keyboard-response","96","260966","0.0-14.0-0.0-0.41","601ae161bca3983decaca14d","619531dcf66c91622fa1b861","61959621ea5e274bdae7ccfe","null","","null","","","","","main_T1_ITI","","","","",""
"","","","","","visual-search-circle","97","263312","0.0-14.0-0.0-1.41","601ae161bca3983decaca14d","619531dcf66c91622fa1b861","61959621ea5e274bdae7ccfe","1338","","d","true","[[320,599],[599,279],[279,0],[0,320]]","true","4","main_T2_Trial","d","img/Fire_Down_Target.gif","[""img/Fire_Up_Distractor.gif"",""img/Fire_Up_Distractor.gif"",""img/Fire_Up_Distractor.gif"",""img/Fire_Up_Distractor.gif"",""img/Fire_Up_Distractor.gif"",""img/Fire_Up_Distractor.gif"",""img/Fire_Up_Distractor.gif"",""img/Fire_Up_Distractor.gif"",""img/Fire_Up_Distractor.gif"",""img/Fire_Up_Distractor.gif"",""img/Fire_Up_Distractor.gif"",""img/Fire_Up_Distractor.gif""]","4","targetDown_distractorsUp"
"","","","","","html-keyboard-response","98","263313","0.0-14.0-0.0-0.42","601ae161bca3983decaca14d","619531dcf66c91622fa1b861","61959621ea5e274bdae7ccfe","null","","null","","","","","main_T1_ITI","","","","",""
"","","","","","visual-search-circle","99","265330","0.0-14.0-0.0-1.42","601ae161bca3983decaca14d","619531dcf66c91622fa1b861","61959621ea5e274bdae7ccfe","1007","","s","true","[[177,25],[25,422],[422,574],[574,177]]","false","4","main_T2_Trial","s","img/Fire_Up_Target.gif","[""img/Fire_Down_Distractor.gif"",""img/Fire_Down_Distractor.gif"",""img/Fire_Down_Distractor.gif"",""img/Fire_Down_Distractor.gif"",""img/Fire_Down_Distractor.gif"",""img/Fire_Down_Distractor.gif"",""img/Fire_Down_Distractor.gif"",""img/Fire_Down_Distractor.gif"",""img/Fire_Down_Distractor.gif"",""img/Fire_Down_Distractor.gif"",""img/Fire_Down_Distractor.gif"",""img/Fire_Down_Distractor.gif""]","4","targetUp_distractorsDown"
"","","","","","html-keyboard-response","100","265332","0.0-14.0-0.0-0.43","601ae161bca3983decaca14d","619531dcf66c91622fa1b861","61959621ea5e274bdae7ccfe","null","","null","","","","","main_T1_ITI","","","","",""
"","","","","","visual-search-circle","101","268616","0.0-14.0-0.0-1.43","601ae161bca3983decaca14d","619531dcf66c91622fa1b861","61959621ea5e274bdae7ccfe","2263","","s","true","[[545,472],[571,173],[326,1],[54,127],[28,426],[273,598]]","false","6","main_T2_Trial","s","img/Fire_Up_Target.gif","[""img/Fire_Down_Distractor.gif"",""img/Fire_Down_Distractor.gif"",""img/Fire_Down_Distractor.gif"",""img/Fire_Down_Distractor.gif"",""img/Fire_Down_Distractor.gif"",""img/Fire_Down_Distractor.gif"",""img/Fire_Down_Distractor.gif"",""img/Fire_Down_Distractor.gif"",""img/Fire_Down_Distractor.gif"",""img/Fire_Down_Distractor.gif"",""img/Fire_Down_Distractor.gif"",""img/Fire_Down_Distractor.gif""]","6","targetUp_distractorsDown"
"","","","","","html-keyboard-response","102","268617","0.0-14.0-0.0-0.44","601ae161bca3983decaca14d","619531dcf66c91622fa1b861","61959621ea5e274bdae7ccfe","null","","null","","","","","main_T1_ITI","","","","",""
"","","","","","visual-search-circle","103","270543","0.0-14.0-0.0-1.44","601ae161bca3983decaca14d","619531dcf66c91622fa1b861","61959621ea5e274bdae7ccfe","915","","d","true","[[585,207],[362,6],[77,99],[14,392],[237,593],[522,500]]","true","6","main_T2_Trial","d","img/Fire_Up_Target.gif","[""img/Fire_Down_Distractor.gif"",""img/Fire_Down_Distractor.gif"",""img/Fire_Down_Distractor.gif"",""img/Fire_Down_Distractor.gif"",""img/Fire_Down_Distractor.gif"",""img/Fire_Down_Distractor.gif"",""img/Fire_Down_Distractor.gif"",""img/Fire_Down_Distractor.gif"",""img/Fire_Down_Distractor.gif"",""img/Fire_Down_Distractor.gif"",""img/Fire_Down_Distractor.gif"",""img/Fire_Down_Distractor.gif""]","6","targetUp_distractorsDown"
"","","","","","html-keyboard-response","104","270544","0.0-14.0-0.0-0.45","601ae161bca3983decaca14d","619531dcf66c91622fa1b861","61959621ea5e274bdae7ccfe","null","","null","","","","","main_T1_ITI","","","","",""
"","","","","","visual-search-circle","105","272607","0.0-14.0-0.0-1.45","601ae161bca3983decaca14d","619531dcf66c91622fa1b861","61959621ea5e274bdae7ccfe","1049","","d","true","[[13,387],[387,586],[586,212],[212,13]]","true","4","main_T2_Trial","d","img/Fire_Down_Target.gif","[""img/Fire_Up_Distractor.gif"",""img/Fire_Up_Distractor.gif"",""img/Fire_Up_Distractor.gif"",""img/Fire_Up_Distractor.gif"",""img/Fire_Up_Distractor.gif"",""img/Fire_Up_Distractor.gif"",""img/Fire_Up_Distractor.gif"",""img/Fire_Up_Distractor.gif"",""img/Fire_Up_Distractor.gif"",""img/Fire_Up_Distractor.gif"",""img/Fire_Up_Distractor.gif"",""img/Fire_Up_Distractor.gif""]","4","targetDown_distractorsUp"
"","","","","","html-keyboard-response","106","272608","0.0-14.0-0.0-0.46","601ae161bca3983decaca14d","619531dcf66c91622fa1b861","61959621ea5e274bdae7ccfe","null","","null","","","","","main_T1_ITI","","","","",""
"","","","","","visual-search-circle","107","275163","0.0-14.0-0.0-1.46","601ae161bca3983decaca14d","619531dcf66c91622fa1b861","61959621ea5e274bdae7ccfe","1538","","s","true","[[382,11],[126,55],[0,283],[100,523],[350,595],[562,444],[577,184]]","false","7","main_T2_Trial","s","img/Fire_Up_Target.gif","[""img/Fire_Down_Distractor.gif"",""img/Fire_Down_Distractor.gif"",""img/Fire_Down_Distractor.gif"",""img/Fire_Down_Distractor.gif"",""img/Fire_Down_Distractor.gif"",""img/Fire_Down_Distractor.gif"",""img/Fire_Down_Distractor.gif"",""img/Fire_Down_Distractor.gif"",""img/Fire_Down_Distractor.gif"",""img/Fire_Down_Distractor.gif"",""img/Fire_Down_Distractor.gif"",""img/Fire_Down_Distractor.gif""]","7","targetUp_distractorsDown"
"","","","","","html-keyboard-response","108","275164","0.0-14.0-0.0-0.47","601ae161bca3983decaca14d","619531dcf66c91622fa1b861","61959621ea5e274bdae7ccfe","null","","null","","","","","main_T1_ITI","","","","",""
"","","","","","visual-search-circle","109","280451","0.0-14.0-0.0-1.47","601ae161bca3983decaca14d","619531dcf66c91622fa1b861","61959621ea5e274bdae7ccfe","4274","","s","true","[[202,583],[496,526],[594,242],[397,16],[103,73],[5,357]]","false","6","main_T2_Trial","s","img/Fire_Down_Target.gif","[""img/Fire_Up_Distractor.gif"",""img/Fire_Up_Distractor.gif"",""img/Fire_Up_Distractor.gif"",""img/Fire_Up_Distractor.gif"",""img/Fire_Up_Distractor.gif"",""img/Fire_Up_Distractor.gif"",""img/Fire_Up_Distractor.gif"",""img/Fire_Up_Distractor.gif"",""img/Fire_Up_Distractor.gif"",""img/Fire_Up_Distractor.gif"",""img/Fire_Up_Distractor.gif"",""img/Fire_Up_Distractor.gif""]","6","targetDown_distractorsUp"
"","","","","","html-keyboard-response","110","280454","0.0-14.0-0.0-0.48","601ae161bca3983decaca14d","619531dcf66c91622fa1b861","61959621ea5e274bdae7ccfe","null","","null","","","","","main_T1_ITI","","","","",""
"","","","","","visual-search-circle","111","282833","0.0-14.0-0.0-1.48","601ae161bca3983decaca14d","619531dcf66c91622fa1b861","61959621ea5e274bdae7ccfe","1360","","d","true","[[14,392],[237,593],[522,500],[585,207],[362,6],[77,99]]","true","6","main_T2_Trial","d","img/Fire_Up_Target.gif","[""img/Fire_Down_Distractor.gif"",""img/Fire_Down_Distractor.gif"",""img/Fire_Down_Distractor.gif"",""img/Fire_Down_Distractor.gif"",""img/Fire_Down_Distractor.gif"",""img/Fire_Down_Distractor.gif"",""img/Fire_Down_Distractor.gif"",""img/Fire_Down_Distractor.gif"",""img/Fire_Down_Distractor.gif"",""img/Fire_Down_Distractor.gif"",""img/Fire_Down_Distractor.gif"",""img/Fire_Down_Distractor.gif""]","6","targetUp_distractorsDown"
"","","","","","html-keyboard-response","112","282834","0.0-14.0-0.0-0.49","601ae161bca3983decaca14d","619531dcf66c91622fa1b861","61959621ea5e274bdae7ccfe","null","","null","","","","","main_T1_ITI","","","","",""
"","","","","","visual-search-circle","113","284722","0.0-14.0-0.0-1.49","601ae161bca3983decaca14d","619531dcf66c91622fa1b861","61959621ea5e274bdae7ccfe","882","","d","true","[[145,557],[557,454],[454,42],[42,145]]","true","4","main_T2_Trial","d","img/Fire_Up_Target.gif","[""img/Fire_Down_Distractor.gif"",""img/Fire_Down_Distractor.gif"",""img/Fire_Down_Distractor.gif"",""img/Fire_Down_Distractor.gif"",""img/Fire_Down_Distractor.gif"",""img/Fire_Down_Distractor.gif"",""img/Fire_Down_Distractor.gif"",""img/Fire_Down_Distractor.gif"",""img/Fire_Down_Distractor.gif"",""img/Fire_Down_Distractor.gif"",""img/Fire_Down_Distractor.gif"",""img/Fire_Down_Distractor.gif""]","4","targetUp_distractorsDown"
"","","","","","html-keyboard-response","114","284724","0.0-14.0-0.0-0.50","601ae161bca3983decaca14d","619531dcf66c91622fa1b861","61959621ea5e274bdae7ccfe","null","","null","","","","","main_T1_ITI","","","","",""
"","","","","","visual-search-circle","115","287109","0.0-14.0-0.0-1.50","601ae161bca3983decaca14d","619531dcf66c91622fa1b861","61959621ea5e274bdae7ccfe","1371","","d","true","[[54,127],[127,545],[545,472],[472,54]]","true","4","main_T2_Trial","d","img/Fire_Up_Target.gif","[""img/Fire_Down_Distractor.gif"",""img/Fire_Down_Distractor.gif"",""img/Fire_Down_Distractor.gif"",""img/Fire_Down_Distractor.gif"",""img/Fire_Down_Distractor.gif"",""img/Fire_Down_Distractor.gif"",""img/Fire_Down_Distractor.gif"",""img/Fire_Down_Distractor.gif"",""img/Fire_Down_Distractor.gif"",""img/Fire_Down_Distractor.gif"",""img/Fire_Down_Distractor.gif"",""img/Fire_Down_Distractor.gif""]","4","targetUp_distractorsDown"
"","","","","","html-keyboard-response","116","287110","0.0-14.0-0.0-0.51","601ae161bca3983decaca14d","619531dcf66c91622fa1b861","61959621ea5e274bdae7ccfe","null","","null","","","","","main_T1_ITI","","","","",""
"","","","","","visual-search-circle","117","290609","0.0-14.0-0.0-1.51","601ae161bca3983decaca14d","619531dcf66c91622fa1b861","61959621ea5e274bdae7ccfe","2483","","s","true","[[372,591],[588,382],[515,91],[227,8],[11,217],[84,508]]","false","6","main_T2_Trial","s","img/Fire_Up_Target.gif","[""img/Fire_Down_Distractor.gif"",""img/Fire_Down_Distractor.gif"",""img/Fire_Down_Distractor.gif"",""img/Fire_Down_Distractor.gif"",""img/Fire_Down_Distractor.gif"",""img/Fire_Down_Distractor.gif"",""img/Fire_Down_Distractor.gif"",""img/Fire_Down_Distractor.gif"",""img/Fire_Down_Distractor.gif"",""img/Fire_Down_Distractor.gif"",""img/Fire_Down_Distractor.gif"",""img/Fire_Down_Distractor.gif""]","6","targetUp_distractorsDown"
"","","","","","html-keyboard-response","118","290611","0.0-14.0-0.0-0.52","601ae161bca3983decaca14d","619531dcf66c91622fa1b861","61959621ea5e274bdae7ccfe","null","","null","","","","","main_T1_ITI","","","","",""
"","","","","","visual-search-circle","119","293498","0.0-14.0-0.0-1.52","601ae161bca3983decaca14d","619531dcf66c91622fa1b861","61959621ea5e274bdae7ccfe","1872","","s","true","[[597,336],[536,115],[336,2],[115,63],[2,263],[63,484],[263,597],[484,536]]","false","8","main_T2_Trial","s","img/Fire_Up_Target.gif","[""img/Fire_Down_Distractor.gif"",""img/Fire_Down_Distractor.gif"",""img/Fire_Down_Distractor.gif"",""img/Fire_Down_Distractor.gif"",""img/Fire_Down_Distractor.gif"",""img/Fire_Down_Distractor.gif"",""img/Fire_Down_Distractor.gif"",""img/Fire_Down_Distractor.gif"",""img/Fire_Down_Distractor.gif"",""img/Fire_Down_Distractor.gif"",""img/Fire_Down_Distractor.gif"",""img/Fire_Down_Distractor.gif""]","8","targetUp_distractorsDown"
"","","","","","html-keyboard-response","120","293499","0.0-14.0-0.0-0.53","601ae161bca3983decaca14d","619531dcf66c91622fa1b861","61959621ea5e274bdae7ccfe","null","","null","","","","","main_T1_ITI","","","","",""
"","","","","","visual-search-circle","121","296923","0.0-14.0-0.0-1.53","601ae161bca3983decaca14d","619531dcf66c91622fa1b861","61959621ea5e274bdae7ccfe","2417","","s","true","[[273,598],[576,417],[496,73],[145,42],[7,367]]","false","5","main_T2_Trial","s","img/Fire_Up_Target.gif","[""img/Fire_Down_Distractor.gif"",""img/Fire_Down_Distractor.gif"",""img/Fire_Down_Distractor.gif"",""img/Fire_Down_Distractor.gif"",""img/Fire_Down_Distractor.gif"",""img/Fire_Down_Distractor.gif"",""img/Fire_Down_Distractor.gif"",""img/Fire_Down_Distractor.gif"",""img/Fire_Down_Distractor.gif"",""img/Fire_Down_Distractor.gif"",""img/Fire_Down_Distractor.gif"",""img/Fire_Down_Distractor.gif""]","5","targetUp_distractorsDown"
"","","","","","html-keyboard-response","122","296925","0.0-14.0-0.0-0.54","601ae161bca3983decaca14d","619531dcf66c91622fa1b861","61959621ea5e274bdae7ccfe","null","","null","","","","","main_T1_ITI","","","","",""
"","","","","","visual-search-circle","123","299943","0.0-14.0-0.0-1.54","601ae161bca3983decaca14d","619531dcf66c91622fa1b861","61959621ea5e274bdae7ccfe","2003","","s","true","[[173,571],[433,568],[593,363],[532,110],[296,0],[63,115],[8,370]]","false","7","main_T2_Trial","s","img/Fire_Down_Target.gif","[""img/Fire_Up_Distractor.gif"",""img/Fire_Up_Distractor.gif"",""img/Fire_Up_Distractor.gif"",""img/Fire_Up_Distractor.gif"",""img/Fire_Up_Distractor.gif"",""img/Fire_Up_Distractor.gif"",""img/Fire_Up_Distractor.gif"",""img/Fire_Up_Distractor.gif"",""img/Fire_Up_Distractor.gif"",""img/Fire_Up_Distractor.gif"",""img/Fire_Up_Distractor.gif"",""img/Fire_Up_Distractor.gif""]","7","targetDown_distractorsUp"
"","","","","","html-keyboard-response","124","299945","0.0-14.0-0.0-0.55","601ae161bca3983decaca14d","619531dcf66c91622fa1b861","61959621ea5e274bdae7ccfe","null","","null","","","","","main_T1_ITI","","","","",""
"","","","","","visual-search-circle","125","303289","0.0-14.0-0.0-1.55","601ae161bca3983decaca14d","619531dcf66c91622fa1b861","61959621ea5e274bdae7ccfe","2325","","s","true","[[463,551],[599,284],[436,32],[136,48],[0,315],[163,567]]","false","6","main_T2_Trial","s","img/Fire_Up_Target.gif","[""img/Fire_Down_Distractor.gif"",""img/Fire_Down_Distractor.gif"",""img/Fire_Down_Distractor.gif"",""img/Fire_Down_Distractor.gif"",""img/Fire_Down_Distractor.gif"",""img/Fire_Down_Distractor.gif"",""img/Fire_Down_Distractor.gif"",""img/Fire_Down_Distractor.gif"",""img/Fire_Down_Distractor.gif"",""img/Fire_Down_Distractor.gif"",""img/Fire_Down_Distractor.gif"",""img/Fire_Down_Distractor.gif""]","6","targetUp_distractorsDown"
"","","","","","html-keyboard-response","126","303290","0.0-14.0-0.0-0.56","601ae161bca3983decaca14d","619531dcf66c91622fa1b861","61959621ea5e274bdae7ccfe","null","","null","","","","","main_T1_ITI","","","","",""
"","","","","","visual-search-circle","127","306619","0.0-14.0-0.0-1.56","601ae161bca3983decaca14d","619531dcf66c91622fa1b861","61959621ea5e274bdae7ccfe","2319","","s","true","[[559,150],[300,0],[40,150],[40,450],[299,600],[559,450]]","false","6","main_T2_Trial","s","img/Fire_Down_Target.gif","[""img/Fire_Up_Distractor.gif"",""img/Fire_Up_Distractor.gif"",""img/Fire_Up_Distractor.gif"",""img/Fire_Up_Distractor.gif"",""img/Fire_Up_Distractor.gif"",""img/Fire_Up_Distractor.gif"",""img/Fire_Up_Distractor.gif"",""img/Fire_Up_Distractor.gif"",""img/Fire_Up_Distractor.gif"",""img/Fire_Up_Distractor.gif"",""img/Fire_Up_Distractor.gif"",""img/Fire_Up_Distractor.gif""]","6","targetDown_distractorsUp"
"","","","","","html-keyboard-response","128","306621","0.0-14.0-0.0-0.57","601ae161bca3983decaca14d","619531dcf66c91622fa1b861","61959621ea5e274bdae7ccfe","null","","null","","","","","main_T1_ITI","","","","",""
"","","","","","visual-search-circle","129","308632","0.0-14.0-0.0-1.57","601ae161bca3983decaca14d","619531dcf66c91622fa1b861","61959621ea5e274bdae7ccfe","1002","","d","true","[[569,168],[397,16],[168,30],[16,202],[30,431],[202,583],[431,569],[583,397]]","true","8","main_T2_Trial","d","img/Fire_Up_Target.gif","[""img/Fire_Down_Distractor.gif"",""img/Fire_Down_Distractor.gif"",""img/Fire_Down_Distractor.gif"",""img/Fire_Down_Distractor.gif"",""img/Fire_Down_Distractor.gif"",""img/Fire_Down_Distractor.gif"",""img/Fire_Down_Distractor.gif"",""img/Fire_Down_Distractor.gif"",""img/Fire_Down_Distractor.gif"",""img/Fire_Down_Distractor.gif"",""img/Fire_Down_Distractor.gif"",""img/Fire_Down_Distractor.gif""]","8","targetUp_distractorsDown"
"","","","","","html-keyboard-response","130","308633","0.0-14.0-0.0-0.58","601ae161bca3983decaca14d","619531dcf66c91622fa1b861","61959621ea5e274bdae7ccfe","null","","null","","","","","main_T1_ITI","","","","",""
"","","","","","visual-search-circle","131","310463","0.0-14.0-0.0-1.58","601ae161bca3983decaca14d","619531dcf66c91622fa1b861","61959621ea5e274bdae7ccfe","819","","d","true","[[554,141],[227,8],[0,279],[187,578],[529,492]]","true","5","main_T2_Trial","d","img/Fire_Up_Target.gif","[""img/Fire_Down_Distractor.gif"",""img/Fire_Down_Distractor.gif"",""img/Fire_Down_Distractor.gif"",""img/Fire_Down_Distractor.gif"",""img/Fire_Down_Distractor.gif"",""img/Fire_Down_Distractor.gif"",""img/Fire_Down_Distractor.gif"",""img/Fire_Down_Distractor.gif"",""img/Fire_Down_Distractor.gif"",""img/Fire_Down_Distractor.gif"",""img/Fire_Down_Distractor.gif"",""img/Fire_Down_Distractor.gif""]","5","targetUp_distractorsDown"
"","","","","","html-keyboard-response","132","321815","0.0-14.0-0.0-0.59","601ae161bca3983decaca14d","619531dcf66c91622fa1b861","61959621ea5e274bdae7ccfe","11352","Wow! You've completed 60 out of 160 trials! </p> <p>  </p><p> Take a quick break, then press any key when you're ready to continue."," ","","","","","main_T1_ITI","","","","",""
"","","","","","visual-search-circle","133","324560","0.0-14.0-0.0-1.59","601ae161bca3983decaca14d","619531dcf66c91622fa1b861","61959621ea5e274bdae7ccfe","1731","","d","false","[[37,154],[42,454],[305,599],[562,445],[557,145],[294,0]]","false","6","main_T2_Trial","s","img/Fire_Up_Target.gif","[""img/Fire_Down_Distractor.gif"",""img/Fire_Down_Distractor.gif"",""img/Fire_Down_Distractor.gif"",""img/Fire_Down_Distractor.gif"",""img/Fire_Down_Distractor.gif"",""img/Fire_Down_Distractor.gif"",""img/Fire_Down_Distractor.gif"",""img/Fire_Down_Distractor.gif"",""img/Fire_Down_Distractor.gif"",""img/Fire_Down_Distractor.gif"",""img/Fire_Down_Distractor.gif"",""img/Fire_Down_Distractor.gif""]","6","targetUp_distractorsDown"
"","","","","","html-keyboard-response","134","324561","0.0-14.0-0.0-0.60","601ae161bca3983decaca14d","619531dcf66c91622fa1b861","61959621ea5e274bdae7ccfe","null","","null","","","","","main_T1_ITI","","","","",""
"","","","","","visual-search-circle","135","328391","0.0-14.0-0.0-1.60","601ae161bca3983decaca14d","619531dcf66c91622fa1b861","61959621ea5e274bdae7ccfe","2817","","s","true","[[310,0],[95,80],[0,289],[80,504],[289,599],[504,519],[599,310],[519,95]]","false","8","main_T2_Trial","s","img/Fire_Down_Target.gif","[""img/Fire_Up_Distractor.gif"",""img/Fire_Up_Distractor.gif"",""img/Fire_Up_Distractor.gif"",""img/Fire_Up_Distractor.gif"",""img/Fire_Up_Distractor.gif"",""img/Fire_Up_Distractor.gif"",""img/Fire_Up_Distractor.gif"",""img/Fire_Up_Distractor.gif"",""img/Fire_Up_Distractor.gif"",""img/Fire_Up_Distractor.gif"",""img/Fire_Up_Distractor.gif"",""img/Fire_Up_Distractor.gif""]","8","targetDown_distractorsUp"
"","","","","","html-keyboard-response","136","328392","0.0-14.0-0.0-0.61","601ae161bca3983decaca14d","619531dcf66c91622fa1b861","61959621ea5e274bdae7ccfe","null","","null","","","","","main_T1_ITI","","","","",""
"","","","","","visual-search-circle","137","330756","0.0-14.0-0.0-1.61","601ae161bca3983decaca14d","619531dcf66c91622fa1b861","61959621ea5e274bdae7ccfe","1356","","s","true","[[352,4],[101,75],[0,314],[124,543],[381,588],[576,416],[563,156]]","false","7","main_T2_Trial","s","img/Fire_Up_Target.gif","[""img/Fire_Down_Distractor.gif"",""img/Fire_Down_Distractor.gif"",""img/Fire_Down_Distractor.gif"",""img/Fire_Down_Distractor.gif"",""img/Fire_Down_Distractor.gif"",""img/Fire_Down_Distractor.gif"",""img/Fire_Down_Distractor.gif"",""img/Fire_Down_Distractor.gif"",""img/Fire_Down_Distractor.gif"",""img/Fire_Down_Distractor.gif"",""img/Fire_Down_Distractor.gif"",""img/Fire_Down_Distractor.gif""]","7","targetUp_distractorsDown"
"","","","","","html-keyboard-response","138","330757","0.0-14.0-0.0-0.62","601ae161bca3983decaca14d","619531dcf66c91622fa1b861","61959621ea5e274bdae7ccfe","null","","null","","","","","main_T1_ITI","","","","",""
"","","","","","visual-search-circle","139","335555","0.0-14.0-0.0-1.62","601ae161bca3983decaca14d","619531dcf66c91622fa1b861","61959621ea5e274bdae7ccfe","3785","","s","true","[[488,533],[598,331],[533,111],[331,1],[111,66],[1,268],[66,488],[268,598]]","false","8","main_T2_Trial","s","img/Fire_Down_Target.gif","[""img/Fire_Up_Distractor.gif"",""img/Fire_Up_Distractor.gif"",""img/Fire_Up_Distractor.gif"",""img/Fire_Up_Distractor.gif"",""img/Fire_Up_Distractor.gif"",""img/Fire_Up_Distractor.gif"",""img/Fire_Up_Distractor.gif"",""img/Fire_Up_Distractor.gif"",""img/Fire_Up_Distractor.gif"",""img/Fire_Up_Distractor.gif"",""img/Fire_Up_Distractor.gif"",""img/Fire_Up_Distractor.gif""]","8","targetDown_distractorsUp"
"","","","","","html-keyboard-response","140","335557","0.0-14.0-0.0-0.63","601ae161bca3983decaca14d","619531dcf66c91622fa1b861","61959621ea5e274bdae7ccfe","null","","null","","","","","main_T1_ITI","","","","",""
"","","","","","visual-search-circle","141","337449","0.0-14.0-0.0-1.63","601ae161bca3983decaca14d","619531dcf66c91622fa1b861","61959621ea5e274bdae7ccfe","874","","d","true","[[392,14],[134,49],[1,273],[92,516],[340,597],[557,453],[580,194]]","true","7","main_T2_Trial","d","img/Fire_Down_Target.gif","[""img/Fire_Up_Distractor.gif"",""img/Fire_Up_Distractor.gif"",""img/Fire_Up_Distractor.gif"",""img/Fire_Up_Distractor.gif"",""img/Fire_Up_Distractor.gif"",""img/Fire_Up_Distractor.gif"",""img/Fire_Up_Distractor.gif"",""img/Fire_Up_Distractor.gif"",""img/Fire_Up_Distractor.gif"",""img/Fire_Up_Distractor.gif"",""img/Fire_Up_Distractor.gif"",""img/Fire_Up_Distractor.gif""]","7","targetDown_distractorsUp"
"","","","","","html-keyboard-response","142","337450","0.0-14.0-0.0-0.64","601ae161bca3983decaca14d","619531dcf66c91622fa1b861","61959621ea5e274bdae7ccfe","null","","null","","","","","main_T1_ITI","","","","",""
"","","","","","visual-search-circle","143","340214","0.0-14.0-0.0-1.64","601ae161bca3983decaca14d","619531dcf66c91622fa1b861","61959621ea5e274bdae7ccfe","1751","","d","true","[[492,70],[273,1],[70,107],[1,326],[107,529],[326,598],[529,492],[598,273]]","true","8","main_T2_Trial","d","img/Fire_Down_Target.gif","[""img/Fire_Up_Distractor.gif"",""img/Fire_Up_Distractor.gif"",""img/Fire_Up_Distractor.gif"",""img/Fire_Up_Distractor.gif"",""img/Fire_Up_Distractor.gif"",""img/Fire_Up_Distractor.gif"",""img/Fire_Up_Distractor.gif"",""img/Fire_Up_Distractor.gif"",""img/Fire_Up_Distractor.gif"",""img/Fire_Up_Distractor.gif"",""img/Fire_Up_Distractor.gif"",""img/Fire_Up_Distractor.gif""]","8","targetDown_distractorsUp"
"","","","","","html-keyboard-response","144","340217","0.0-14.0-0.0-0.65","601ae161bca3983decaca14d","619531dcf66c91622fa1b861","61959621ea5e274bdae7ccfe","null","","null","","","","","main_T1_ITI","","","","",""
"","","","","","visual-search-circle","145","343926","0.0-14.0-0.0-1.65","601ae161bca3983decaca14d","619531dcf66c91622fa1b861","61959621ea5e274bdae7ccfe","2696","","d","true","[[28,173],[95,519],[445,562],[594,242],[336,2]]","true","5","main_T2_Trial","d","img/Fire_Up_Target.gif","[""img/Fire_Down_Distractor.gif"",""img/Fire_Down_Distractor.gif"",""img/Fire_Down_Distractor.gif"",""img/Fire_Down_Distractor.gif"",""img/Fire_Down_Distractor.gif"",""img/Fire_Down_Distractor.gif"",""img/Fire_Down_Distractor.gif"",""img/Fire_Down_Distractor.gif"",""img/Fire_Down_Distractor.gif"",""img/Fire_Down_Distractor.gif"",""img/Fire_Down_Distractor.gif"",""img/Fire_Down_Distractor.gif""]","5","targetUp_distractorsDown"
"","","","","","html-keyboard-response","146","343930","0.0-14.0-0.0-0.66","601ae161bca3983decaca14d","619531dcf66c91622fa1b861","61959621ea5e274bdae7ccfe","null","","null","","","","","main_T1_ITI","","","","",""
"","","","","","visual-search-circle","147","347807","0.0-14.0-0.0-1.66","601ae161bca3983decaca14d","619531dcf66c91622fa1b861","61959621ea5e274bdae7ccfe","2865","","s","true","[[207,585],[436,567],[585,392],[567,163],[392,14],[163,32],[14,207],[32,436]]","false","8","main_T2_Trial","s","img/Fire_Down_Target.gif","[""img/Fire_Up_Distractor.gif"",""img/Fire_Up_Distractor.gif"",""img/Fire_Up_Distractor.gif"",""img/Fire_Up_Distractor.gif"",""img/Fire_Up_Distractor.gif"",""img/Fire_Up_Distractor.gif"",""img/Fire_Up_Distractor.gif"",""img/Fire_Up_Distractor.gif"",""img/Fire_Up_Distractor.gif"",""img/Fire_Up_Distractor.gif"",""img/Fire_Up_Distractor.gif"",""img/Fire_Up_Distractor.gif""]","8","targetDown_distractorsUp"
"","","","","","html-keyboard-response","148","347813","0.0-14.0-0.0-0.67","601ae161bca3983decaca14d","619531dcf66c91622fa1b861","61959621ea5e274bdae7ccfe","null","","null","","","","","main_T1_ITI","","","","",""
"","","","","","visual-search-circle","149","349726","0.0-14.0-0.0-1.67","601ae161bca3983decaca14d","619531dcf66c91622fa1b861","61959621ea5e274bdae7ccfe","908","","d","true","[[273,1],[1,326],[326,598],[598,273]]","true","4","main_T2_Trial","d","img/Fire_Down_Target.gif","[""img/Fire_Up_Distractor.gif"",""img/Fire_Up_Distractor.gif"",""img/Fire_Up_Distractor.gif"",""img/Fire_Up_Distractor.gif"",""img/Fire_Up_Distractor.gif"",""img/Fire_Up_Distractor.gif"",""img/Fire_Up_Distractor.gif"",""img/Fire_Up_Distractor.gif"",""img/Fire_Up_Distractor.gif"",""img/Fire_Up_Distractor.gif"",""img/Fire_Up_Distractor.gif"",""img/Fire_Up_Distractor.gif""]","4","targetDown_distractorsUp"
"","","","","","html-keyboard-response","150","349728","0.0-14.0-0.0-0.68","601ae161bca3983decaca14d","619531dcf66c91622fa1b861","61959621ea5e274bdae7ccfe","null","","null","","","","","main_T1_ITI","","","","",""
"","","","","","visual-search-circle","151","352282","0.0-14.0-0.0-1.68","601ae161bca3983decaca14d","619531dcf66c91622fa1b861","61959621ea5e274bdae7ccfe","1550","","s","true","[[16,202],[202,583],[583,397],[397,16]]","false","4","main_T2_Trial","s","img/Fire_Down_Target.gif","[""img/Fire_Up_Distractor.gif"",""img/Fire_Up_Distractor.gif"",""img/Fire_Up_Distractor.gif"",""img/Fire_Up_Distractor.gif"",""img/Fire_Up_Distractor.gif"",""img/Fire_Up_Distractor.gif"",""img/Fire_Up_Distractor.gif"",""img/Fire_Up_Distractor.gif"",""img/Fire_Up_Distractor.gif"",""img/Fire_Up_Distractor.gif"",""img/Fire_Up_Distractor.gif"",""img/Fire_Up_Distractor.gif""]","4","targetDown_distractorsUp"
"","","","","","html-keyboard-response","152","352283","0.0-14.0-0.0-0.69","601ae161bca3983decaca14d","619531dcf66c91622fa1b861","61959621ea5e274bdae7ccfe","null","","null","","","","","main_T1_ITI","","","","",""
"","","","","","visual-search-circle","153","357477","0.0-14.0-0.0-1.69","601ae161bca3983decaca14d","619531dcf66c91622fa1b861","61959621ea5e274bdae7ccfe","4176","","s","true","[[576,182],[336,2],[60,119],[23,417],[263,597],[539,480]]","false","6","main_T2_Trial","s","img/Fire_Up_Target.gif","[""img/Fire_Down_Distractor.gif"",""img/Fire_Down_Distractor.gif"",""img/Fire_Down_Distractor.gif"",""img/Fire_Down_Distractor.gif"",""img/Fire_Down_Distractor.gif"",""img/Fire_Down_Distractor.gif"",""img/Fire_Down_Distractor.gif"",""img/Fire_Down_Distractor.gif"",""img/Fire_Down_Distractor.gif"",""img/Fire_Down_Distractor.gif"",""img/Fire_Down_Distractor.gif"",""img/Fire_Down_Distractor.gif""]","6","targetUp_distractorsDown"
"","","","","","html-keyboard-response","154","357478","0.0-14.0-0.0-0.70","601ae161bca3983decaca14d","619531dcf66c91622fa1b861","61959621ea5e274bdae7ccfe","null","","null","","","","","main_T1_ITI","","","","",""
"","","","","","visual-search-circle","155","361851","0.0-14.0-0.0-1.70","601ae161bca3983decaca14d","619531dcf66c91622fa1b861","61959621ea5e274bdae7ccfe","3355","","d","true","[[450,40],[222,10],[40,150],[10,377],[149,559],[377,589],[559,450],[589,222]]","true","8","main_T2_Trial","d","img/Fire_Up_Target.gif","[""img/Fire_Down_Distractor.gif"",""img/Fire_Down_Distractor.gif"",""img/Fire_Down_Distractor.gif"",""img/Fire_Down_Distractor.gif"",""img/Fire_Down_Distractor.gif"",""img/Fire_Down_Distractor.gif"",""img/Fire_Down_Distractor.gif"",""img/Fire_Down_Distractor.gif"",""img/Fire_Down_Distractor.gif"",""img/Fire_Down_Distractor.gif"",""img/Fire_Down_Distractor.gif"",""img/Fire_Down_Distractor.gif""]","8","targetUp_distractorsDown"
"","","","","","html-keyboard-response","156","361852","0.0-14.0-0.0-0.71","601ae161bca3983decaca14d","619531dcf66c91622fa1b861","61959621ea5e274bdae7ccfe","null","","null","","","","","main_T1_ITI","","","","",""
"","","","","","visual-search-circle","157","364608","0.0-14.0-0.0-1.71","601ae161bca3983decaca14d","619531dcf66c91622fa1b861","61959621ea5e274bdae7ccfe","1738","","s","true","[[454,557],[557,145],[145,42],[42,454]]","false","4","main_T2_Trial","s","img/Fire_Up_Target.gif","[""img/Fire_Down_Distractor.gif"",""img/Fire_Down_Distractor.gif"",""img/Fire_Down_Distractor.gif"",""img/Fire_Down_Distractor.gif"",""img/Fire_Down_Distractor.gif"",""img/Fire_Down_Distractor.gif"",""img/Fire_Down_Distractor.gif"",""img/Fire_Down_Distractor.gif"",""img/Fire_Down_Distractor.gif"",""img/Fire_Down_Distractor.gif"",""img/Fire_Down_Distractor.gif"",""img/Fire_Down_Distractor.gif""]","4","targetUp_distractorsDown"
"","","","","","html-keyboard-response","158","364609","0.0-14.0-0.0-0.72","601ae161bca3983decaca14d","619531dcf66c91622fa1b861","61959621ea5e274bdae7ccfe","null","","null","","","","","main_T1_ITI","","","","",""
"","","","","","visual-search-circle","159","367618","0.0-14.0-0.0-1.72","601ae161bca3983decaca14d","619531dcf66c91622fa1b861","61959621ea5e274bdae7ccfe","2000","","d","true","[[5,242],[103,526],[397,583],[594,357],[496,73],[202,16]]","true","6","main_T2_Trial","d","img/Fire_Up_Target.gif","[""img/Fire_Down_Distractor.gif"",""img/Fire_Down_Distractor.gif"",""img/Fire_Down_Distractor.gif"",""img/Fire_Down_Distractor.gif"",""img/Fire_Down_Distractor.gif"",""img/Fire_Down_Distractor.gif"",""img/Fire_Down_Distractor.gif"",""img/Fire_Down_Distractor.gif"",""img/Fire_Down_Distractor.gif"",""img/Fire_Down_Distractor.gif"",""img/Fire_Down_Distractor.gif"",""img/Fire_Down_Distractor.gif""]","6","targetUp_distractorsDown"
"","","","","","html-keyboard-response","160","367619","0.0-14.0-0.0-0.73","601ae161bca3983decaca14d","619531dcf66c91622fa1b861","61959621ea5e274bdae7ccfe","null","","null","","","","","main_T1_ITI","","","","",""
"","","","","","visual-search-circle","161","372296","0.0-14.0-0.0-1.73","601ae161bca3983decaca14d","619531dcf66c91622fa1b861","61959621ea5e274bdae7ccfe","3668","","d","true","[[484,536],[536,115],[115,63],[63,484]]","true","4","main_T2_Trial","d","img/Fire_Up_Target.gif","[""img/Fire_Down_Distractor.gif"",""img/Fire_Down_Distractor.gif"",""img/Fire_Down_Distractor.gif"",""img/Fire_Down_Distractor.gif"",""img/Fire_Down_Distractor.gif"",""img/Fire_Down_Distractor.gif"",""img/Fire_Down_Distractor.gif"",""img/Fire_Down_Distractor.gif"",""img/Fire_Down_Distractor.gif"",""img/Fire_Down_Distractor.gif"",""img/Fire_Down_Distractor.gif"",""img/Fire_Down_Distractor.gif""]","4","targetUp_distractorsDown"
"","","","","","html-keyboard-response","162","372296","0.0-14.0-0.0-0.74","601ae161bca3983decaca14d","619531dcf66c91622fa1b861","61959621ea5e274bdae7ccfe","null","","null","","","","","main_T1_ITI","","","","",""
"","","","","","visual-search-circle","163","374742","0.0-14.0-0.0-1.74","601ae161bca3983decaca14d","619531dcf66c91622fa1b861","61959621ea5e274bdae7ccfe","1437","","s","true","[[422,574],[598,331],[476,57],[177,25],[1,268],[123,542]]","false","6","main_T2_Trial","s","img/Fire_Down_Target.gif","[""img/Fire_Up_Distractor.gif"",""img/Fire_Up_Distractor.gif"",""img/Fire_Up_Distractor.gif"",""img/Fire_Up_Distractor.gif"",""img/Fire_Up_Distractor.gif"",""img/Fire_Up_Distractor.gif"",""img/Fire_Up_Distractor.gif"",""img/Fire_Up_Distractor.gif"",""img/Fire_Up_Distractor.gif"",""img/Fire_Up_Distractor.gif"",""img/Fire_Up_Distractor.gif"",""img/Fire_Up_Distractor.gif""]","6","targetDown_distractorsUp"
"","","","","","html-keyboard-response","164","374742","0.0-14.0-0.0-0.75","601ae161bca3983decaca14d","619531dcf66c91622fa1b861","61959621ea5e274bdae7ccfe","null","","null","","","","","main_T1_ITI","","","","",""
"","","","","","visual-search-circle","165","378423","0.0-14.0-0.0-1.75","601ae161bca3983decaca14d","619531dcf66c91622fa1b861","61959621ea5e274bdae7ccfe","2673","","s","true","[[95,519],[310,599],[519,504],[599,289],[504,80],[289,0],[80,95],[0,310]]","false","8","main_T2_Trial","s","img/Fire_Up_Target.gif","[""img/Fire_Down_Distractor.gif"",""img/Fire_Down_Distractor.gif"",""img/Fire_Down_Distractor.gif"",""img/Fire_Down_Distractor.gif"",""img/Fire_Down_Distractor.gif"",""img/Fire_Down_Distractor.gif"",""img/Fire_Down_Distractor.gif"",""img/Fire_Down_Distractor.gif"",""img/Fire_Down_Distractor.gif"",""img/Fire_Down_Distractor.gif"",""img/Fire_Down_Distractor.gif"",""img/Fire_Down_Distractor.gif""]","8","targetUp_distractorsDown"
"","","","","","html-keyboard-response","166","378424","0.0-14.0-0.0-0.76","601ae161bca3983decaca14d","619531dcf66c91622fa1b861","61959621ea5e274bdae7ccfe","null","","null","","","","","main_T1_ITI","","","","",""
"","","","","","visual-search-circle","167","381632","0.0-14.0-0.0-1.76","601ae161bca3983decaca14d","619531dcf66c91622fa1b861","61959621ea5e274bdae7ccfe","2202","","s","true","[[18,197],[44,456],[262,597],[509,514],[598,270],[462,47],[204,15]]","false","7","main_T2_Trial","s","img/Fire_Up_Target.gif","[""img/Fire_Down_Distractor.gif"",""img/Fire_Down_Distractor.gif"",""img/Fire_Down_Distractor.gif"",""img/Fire_Down_Distractor.gif"",""img/Fire_Down_Distractor.gif"",""img/Fire_Down_Distractor.gif"",""img/Fire_Down_Distractor.gif"",""img/Fire_Down_Distractor.gif"",""img/Fire_Down_Distractor.gif"",""img/Fire_Down_Distractor.gif"",""img/Fire_Down_Distractor.gif"",""img/Fire_Down_Distractor.gif""]","7","targetUp_distractorsDown"
"","","","","","html-keyboard-response","168","381633","0.0-14.0-0.0-0.77","601ae161bca3983decaca14d","619531dcf66c91622fa1b861","61959621ea5e274bdae7ccfe","null","","null","","","","","main_T1_ITI","","","","",""
"","","","","","visual-search-circle","169","383934","0.0-14.0-0.0-1.77","601ae161bca3983decaca14d","619531dcf66c91622fa1b861","61959621ea5e274bdae7ccfe","1288","","d","true","[[580,407],[407,19],[19,192],[192,580]]","true","4","main_T2_Trial","d","img/Fire_Up_Target.gif","[""img/Fire_Down_Distractor.gif"",""img/Fire_Down_Distractor.gif"",""img/Fire_Down_Distractor.gif"",""img/Fire_Down_Distractor.gif"",""img/Fire_Down_Distractor.gif"",""img/Fire_Down_Distractor.gif"",""img/Fire_Down_Distractor.gif"",""img/Fire_Down_Distractor.gif"",""img/Fire_Down_Distractor.gif"",""img/Fire_Down_Distractor.gif"",""img/Fire_Down_Distractor.gif"",""img/Fire_Down_Distractor.gif""]","4","targetUp_distractorsDown"
"","","","","","html-keyboard-response","170","383935","0.0-14.0-0.0-0.78","601ae161bca3983decaca14d","619531dcf66c91622fa1b861","61959621ea5e274bdae7ccfe","null","","null","","","","","main_T1_ITI","","","","",""
"","","","","","visual-search-circle","171","387479","0.0-14.0-0.0-1.78","601ae161bca3983decaca14d","619531dcf66c91622fa1b861","61959621ea5e274bdae7ccfe","2526","","s","true","[[0,320],[168,569],[467,548],[599,279],[431,30],[132,51]]","false","6","main_T2_Trial","s","img/Fire_Down_Target.gif","[""img/Fire_Up_Distractor.gif"",""img/Fire_Up_Distractor.gif"",""img/Fire_Up_Distractor.gif"",""img/Fire_Up_Distractor.gif"",""img/Fire_Up_Distractor.gif"",""img/Fire_Up_Distractor.gif"",""img/Fire_Up_Distractor.gif"",""img/Fire_Up_Distractor.gif"",""img/Fire_Up_Distractor.gif"",""img/Fire_Up_Distractor.gif"",""img/Fire_Up_Distractor.gif"",""img/Fire_Up_Distractor.gif""]","6","targetDown_distractorsUp"
"","","","","","html-keyboard-response","172","411524","0.0-14.0-0.0-0.79","601ae161bca3983decaca14d","619531dcf66c91622fa1b861","61959621ea5e274bdae7ccfe","24044","Wow! You've completed 80 out of 160 trials! </p> <p>  </p><p> Take a quick break, then press any key when you're ready to continue."," ","","","","","main_T1_ITI","","","","",""
"","","","","","visual-search-circle","173","413780","0.0-14.0-0.0-1.79","601ae161bca3983decaca14d","619531dcf66c91622fa1b861","61959621ea5e274bdae7ccfe","1241","","d","true","[[30,431],[341,597],[595,352],[440,35],[91,84]]","true","5","main_T2_Trial","d","img/Fire_Down_Target.gif","[""img/Fire_Up_Distractor.gif"",""img/Fire_Up_Distractor.gif"",""img/Fire_Up_Distractor.gif"",""img/Fire_Up_Distractor.gif"",""img/Fire_Up_Distractor.gif"",""img/Fire_Up_Distractor.gif"",""img/Fire_Up_Distractor.gif"",""img/Fire_Up_Distractor.gif"",""img/Fire_Up_Distractor.gif"",""img/Fire_Up_Distractor.gif"",""img/Fire_Up_Distractor.gif"",""img/Fire_Up_Distractor.gif""]","5","targetDown_distractorsUp"
"","","","","","html-keyboard-response","174","413786","0.0-14.0-0.0-0.80","601ae161bca3983decaca14d","619531dcf66c91622fa1b861","61959621ea5e274bdae7ccfe","null","","null","","","","","main_T1_ITI","","","","",""
"","","","","","visual-search-circle","175","415539","0.0-14.0-0.0-1.80","601ae161bca3983decaca14d","619531dcf66c91622fa1b861","61959621ea5e274bdae7ccfe","748","","s","true","[[299,600],[559,450],[559,150],[300,0],[40,150],[40,449]]","false","6","main_T2_Trial","s","img/Fire_Down_Target.gif","[""img/Fire_Up_Distractor.gif"",""img/Fire_Up_Distractor.gif"",""img/Fire_Up_Distractor.gif"",""img/Fire_Up_Distractor.gif"",""img/Fire_Up_Distractor.gif"",""img/Fire_Up_Distractor.gif"",""img/Fire_Up_Distractor.gif"",""img/Fire_Up_Distractor.gif"",""img/Fire_Up_Distractor.gif"",""img/Fire_Up_Distractor.gif"",""img/Fire_Up_Distractor.gif"",""img/Fire_Up_Distractor.gif""]","6","targetDown_distractorsUp"
"","","","","","html-keyboard-response","176","415540","0.0-14.0-0.0-0.81","601ae161bca3983decaca14d","619531dcf66c91622fa1b861","61959621ea5e274bdae7ccfe","null","","null","","","","","main_T1_ITI","","","","",""
"","","","","","visual-search-circle","177","418409","0.0-14.0-0.0-1.81","601ae161bca3983decaca14d","619531dcf66c91622fa1b861","61959621ea5e274bdae7ccfe","1857","","s","true","[[159,564],[458,554],[599,289],[440,35],[141,45],[0,310]]","false","6","main_T2_Trial","s","img/Fire_Down_Target.gif","[""img/Fire_Up_Distractor.gif"",""img/Fire_Up_Distractor.gif"",""img/Fire_Up_Distractor.gif"",""img/Fire_Up_Distractor.gif"",""img/Fire_Up_Distractor.gif"",""img/Fire_Up_Distractor.gif"",""img/Fire_Up_Distractor.gif"",""img/Fire_Up_Distractor.gif"",""img/Fire_Up_Distractor.gif"",""img/Fire_Up_Distractor.gif"",""img/Fire_Up_Distractor.gif"",""img/Fire_Up_Distractor.gif""]","6","targetDown_distractorsUp"
"","","","","","html-keyboard-response","178","418411","0.0-14.0-0.0-0.82","601ae161bca3983decaca14d","619531dcf66c91622fa1b861","61959621ea5e274bdae7ccfe","null","","null","","","","","main_T1_ITI","","","","",""
"","","","","","visual-search-circle","179","421300","0.0-14.0-0.0-1.82","601ae161bca3983decaca14d","619531dcf66c91622fa1b861","61959621ea5e274bdae7ccfe","1880","","s","true","[[289,599],[504,519],[599,310],[519,95],[310,0],[95,80],[0,289],[80,504]]","false","8","main_T2_Trial","s","img/Fire_Up_Target.gif","[""img/Fire_Down_Distractor.gif"",""img/Fire_Down_Distractor.gif"",""img/Fire_Down_Distractor.gif"",""img/Fire_Down_Distractor.gif"",""img/Fire_Down_Distractor.gif"",""img/Fire_Down_Distractor.gif"",""img/Fire_Down_Distractor.gif"",""img/Fire_Down_Distractor.gif"",""img/Fire_Down_Distractor.gif"",""img/Fire_Down_Distractor.gif"",""img/Fire_Down_Distractor.gif"",""img/Fire_Down_Distractor.gif""]","8","targetUp_distractorsDown"
"","","","","","html-keyboard-response","180","421304","0.0-14.0-0.0-0.83","601ae161bca3983decaca14d","619531dcf66c91622fa1b861","61959621ea5e274bdae7ccfe","null","","null","","","","","main_T1_ITI","","","","",""
"","","","","","visual-search-circle","181","423274","0.0-14.0-0.0-1.83","601ae161bca3983decaca14d","619531dcf66c91622fa1b861","61959621ea5e274bdae7ccfe","954","","d","true","[[1,331],[237,593],[559,450],[522,99],[177,25]]","true","5","main_T2_Trial","d","img/Fire_Up_Target.gif","[""img/Fire_Down_Distractor.gif"",""img/Fire_Down_Distractor.gif"",""img/Fire_Down_Distractor.gif"",""img/Fire_Down_Distractor.gif"",""img/Fire_Down_Distractor.gif"",""img/Fire_Down_Distractor.gif"",""img/Fire_Down_Distractor.gif"",""img/Fire_Down_Distractor.gif"",""img/Fire_Down_Distractor.gif"",""img/Fire_Down_Distractor.gif"",""img/Fire_Down_Distractor.gif"",""img/Fire_Down_Distractor.gif""]","5","targetUp_distractorsDown"
"","","","","","html-keyboard-response","182","423276","0.0-14.0-0.0-0.84","601ae161bca3983decaca14d","619531dcf66c91622fa1b861","61959621ea5e274bdae7ccfe","null","","null","","","","","main_T1_ITI","","","","",""
"","","","","","visual-search-circle","183","425281","0.0-14.0-0.0-1.84","601ae161bca3983decaca14d","619531dcf66c91622fa1b861","61959621ea5e274bdae7ccfe","986","","s","true","[[529,492],[554,141],[227,8],[0,279],[187,578]]","false","5","main_T2_Trial","s","img/Fire_Down_Target.gif","[""img/Fire_Up_Distractor.gif"",""img/Fire_Up_Distractor.gif"",""img/Fire_Up_Distractor.gif"",""img/Fire_Up_Distractor.gif"",""img/Fire_Up_Distractor.gif"",""img/Fire_Up_Distractor.gif"",""img/Fire_Up_Distractor.gif"",""img/Fire_Up_Distractor.gif"",""img/Fire_Up_Distractor.gif"",""img/Fire_Up_Distractor.gif"",""img/Fire_Up_Distractor.gif"",""img/Fire_Up_Distractor.gif""]","5","targetDown_distractorsUp"
"","","","","","html-keyboard-response","184","425282","0.0-14.0-0.0-0.85","601ae161bca3983decaca14d","619531dcf66c91622fa1b861","61959621ea5e274bdae7ccfe","null","","null","","","","","main_T1_ITI","","","","",""
"","","","","","visual-search-circle","185","427767","0.0-14.0-0.0-1.85","601ae161bca3983decaca14d","619531dcf66c91622fa1b861","61959621ea5e274bdae7ccfe","1474","","s","true","[[480,539],[583,202],[294,0],[13,212],[127,545]]","false","5","main_T2_Trial","s","img/Fire_Up_Target.gif","[""img/Fire_Down_Distractor.gif"",""img/Fire_Down_Distractor.gif"",""img/Fire_Down_Distractor.gif"",""img/Fire_Down_Distractor.gif"",""img/Fire_Down_Distractor.gif"",""img/Fire_Down_Distractor.gif"",""img/Fire_Down_Distractor.gif"",""img/Fire_Down_Distractor.gif"",""img/Fire_Down_Distractor.gif"",""img/Fire_Down_Distractor.gif"",""img/Fire_Down_Distractor.gif"",""img/Fire_Down_Distractor.gif""]","5","targetUp_distractorsDown"
"","","","","","html-keyboard-response","186","427768","0.0-14.0-0.0-0.86","601ae161bca3983decaca14d","619531dcf66c91622fa1b861","61959621ea5e274bdae7ccfe","null","","null","","","","","main_T1_ITI","","","","",""
"","","","","","visual-search-circle","187","429868","0.0-14.0-0.0-1.86","601ae161bca3983decaca14d","619531dcf66c91622fa1b861","61959621ea5e274bdae7ccfe","1087","","d","true","[[372,591],[599,320],[412,21],[70,107],[45,458]]","true","5","main_T2_Trial","d","img/Fire_Up_Target.gif","[""img/Fire_Down_Distractor.gif"",""img/Fire_Down_Distractor.gif"",""img/Fire_Down_Distractor.gif"",""img/Fire_Down_Distractor.gif"",""img/Fire_Down_Distractor.gif"",""img/Fire_Down_Distractor.gif"",""img/Fire_Down_Distractor.gif"",""img/Fire_Down_Distractor.gif"",""img/Fire_Down_Distractor.gif"",""img/Fire_Down_Distractor.gif"",""img/Fire_Down_Distractor.gif"",""img/Fire_Down_Distractor.gif""]","5","targetUp_distractorsDown"
"","","","","","html-keyboard-response","188","429869","0.0-14.0-0.0-0.87","601ae161bca3983decaca14d","619531dcf66c91622fa1b861","61959621ea5e274bdae7ccfe","null","","null","","","","","main_T1_ITI","","","","",""
"","","","","","visual-search-circle","189","431717","0.0-14.0-0.0-1.87","601ae161bca3983decaca14d","619531dcf66c91622fa1b861","61959621ea5e274bdae7ccfe","845","","d","true","[[536,115],[115,63],[63,484],[484,536]]","true","4","main_T2_Trial","d","img/Fire_Up_Target.gif","[""img/Fire_Down_Distractor.gif"",""img/Fire_Down_Distractor.gif"",""img/Fire_Down_Distractor.gif"",""img/Fire_Down_Distractor.gif"",""img/Fire_Down_Distractor.gif"",""img/Fire_Down_Distractor.gif"",""img/Fire_Down_Distractor.gif"",""img/Fire_Down_Distractor.gif"",""img/Fire_Down_Distractor.gif"",""img/Fire_Down_Distractor.gif"",""img/Fire_Down_Distractor.gif"",""img/Fire_Down_Distractor.gif""]","4","targetUp_distractorsDown"
"","","","","","html-keyboard-response","190","431718","0.0-14.0-0.0-0.88","601ae161bca3983decaca14d","619531dcf66c91622fa1b861","61959621ea5e274bdae7ccfe","null","","null","","","","","main_T1_ITI","","","","",""
"","","","","","visual-search-circle","191","433826","0.0-14.0-0.0-1.88","601ae161bca3983decaca14d","619531dcf66c91622fa1b861","61959621ea5e274bdae7ccfe","1097","","d","true","[[111,66],[1,268],[66,488],[268,598],[488,533],[598,331],[533,111],[331,1]]","true","8","main_T2_Trial","d","img/Fire_Up_Target.gif","[""img/Fire_Down_Distractor.gif"",""img/Fire_Down_Distractor.gif"",""img/Fire_Down_Distractor.gif"",""img/Fire_Down_Distractor.gif"",""img/Fire_Down_Distractor.gif"",""img/Fire_Down_Distractor.gif"",""img/Fire_Down_Distractor.gif"",""img/Fire_Down_Distractor.gif"",""img/Fire_Down_Distractor.gif"",""img/Fire_Down_Distractor.gif"",""img/Fire_Down_Distractor.gif"",""img/Fire_Down_Distractor.gif""]","8","targetUp_distractorsDown"
"","","","","","html-keyboard-response","192","433827","0.0-14.0-0.0-0.89","601ae161bca3983decaca14d","619531dcf66c91622fa1b861","61959621ea5e274bdae7ccfe","null","","null","","","","","main_T1_ITI","","","","",""
"","","","","","visual-search-circle","193","436177","0.0-14.0-0.0-1.89","601ae161bca3983decaca14d","619531dcf66c91622fa1b861","61959621ea5e274bdae7ccfe","1342","","s","true","[[548,467],[536,115],[197,18],[0,310],[217,588]]","false","5","main_T2_Trial","s","img/Fire_Up_Target.gif","[""img/Fire_Down_Distractor.gif"",""img/Fire_Down_Distractor.gif"",""img/Fire_Down_Distractor.gif"",""img/Fire_Down_Distractor.gif"",""img/Fire_Down_Distractor.gif"",""img/Fire_Down_Distractor.gif"",""img/Fire_Down_Distractor.gif"",""img/Fire_Down_Distractor.gif"",""img/Fire_Down_Distractor.gif"",""img/Fire_Down_Distractor.gif"",""img/Fire_Down_Distractor.gif"",""img/Fire_Down_Distractor.gif""]","5","targetUp_distractorsDown"
"","","","","","html-keyboard-response","194","436184","0.0-14.0-0.0-0.90","601ae161bca3983decaca14d","619531dcf66c91622fa1b861","61959621ea5e274bdae7ccfe","null","","null","","","","","main_T1_ITI","","","","",""
"","","","","","visual-search-circle","195","440376","0.0-14.0-0.0-1.90","601ae161bca3983decaca14d","619531dcf66c91622fa1b861","61959621ea5e274bdae7ccfe","3187","","s","true","[[593,362],[362,6],[6,237],[237,593]]","false","4","main_T2_Trial","s","img/Fire_Up_Target.gif","[""img/Fire_Down_Distractor.gif"",""img/Fire_Down_Distractor.gif"",""img/Fire_Down_Distractor.gif"",""img/Fire_Down_Distractor.gif"",""img/Fire_Down_Distractor.gif"",""img/Fire_Down_Distractor.gif"",""img/Fire_Down_Distractor.gif"",""img/Fire_Down_Distractor.gif"",""img/Fire_Down_Distractor.gif"",""img/Fire_Down_Distractor.gif"",""img/Fire_Down_Distractor.gif"",""img/Fire_Down_Distractor.gif""]","4","targetUp_distractorsDown"
"","","","","","html-keyboard-response","196","440387","0.0-14.0-0.0-0.91","601ae161bca3983decaca14d","619531dcf66c91622fa1b861","61959621ea5e274bdae7ccfe","null","","null","","","","","main_T1_ITI","","","","",""
"","","","","","visual-search-circle","197","442517","0.0-14.0-0.0-1.91","601ae161bca3983decaca14d","619531dcf66c91622fa1b861","61959621ea5e274bdae7ccfe","1125","","d","true","[[397,583],[599,294],[387,13],[54,127],[60,480]]","true","5","main_T2_Trial","d","img/Fire_Up_Target.gif","[""img/Fire_Down_Distractor.gif"",""img/Fire_Down_Distractor.gif"",""img/Fire_Down_Distractor.gif"",""img/Fire_Down_Distractor.gif"",""img/Fire_Down_Distractor.gif"",""img/Fire_Down_Distractor.gif"",""img/Fire_Down_Distractor.gif"",""img/Fire_Down_Distractor.gif"",""img/Fire_Down_Distractor.gif"",""img/Fire_Down_Distractor.gif"",""img/Fire_Down_Distractor.gif"",""img/Fire_Down_Distractor.gif""]","5","targetUp_distractorsDown"
"","","","","","html-keyboard-response","198","442518","0.0-14.0-0.0-0.92","601ae161bca3983decaca14d","619531dcf66c91622fa1b861","61959621ea5e274bdae7ccfe","null","","null","","","","","main_T1_ITI","","","","",""
"","","","","","visual-search-circle","199","446127","0.0-14.0-0.0-1.92","601ae161bca3983decaca14d","619531dcf66c91622fa1b861","61959621ea5e274bdae7ccfe","2592","","d","true","[[141,554],[440,564],[599,310],[458,45],[159,35],[0,289]]","true","6","main_T2_Trial","d","img/Fire_Down_Target.gif","[""img/Fire_Up_Distractor.gif"",""img/Fire_Up_Distractor.gif"",""img/Fire_Up_Distractor.gif"",""img/Fire_Up_Distractor.gif"",""img/Fire_Up_Distractor.gif"",""img/Fire_Up_Distractor.gif"",""img/Fire_Up_Distractor.gif"",""img/Fire_Up_Distractor.gif"",""img/Fire_Up_Distractor.gif"",""img/Fire_Up_Distractor.gif"",""img/Fire_Up_Distractor.gif"",""img/Fire_Up_Distractor.gif""]","6","targetDown_distractorsUp"
"","","","","","html-keyboard-response","200","446133","0.0-14.0-0.0-0.93","601ae161bca3983decaca14d","619531dcf66c91622fa1b861","61959621ea5e274bdae7ccfe","null","","null","","","","","main_T1_ITI","","","","",""
"","","","","","visual-search-circle","201","448862","0.0-14.0-0.0-1.93","601ae161bca3983decaca14d","619531dcf66c91622fa1b861","61959621ea5e274bdae7ccfe","1709","","s","true","[[217,588],[548,467],[536,115],[197,18],[0,310]]","false","5","main_T2_Trial","s","img/Fire_Up_Target.gif","[""img/Fire_Down_Distractor.gif"",""img/Fire_Down_Distractor.gif"",""img/Fire_Down_Distractor.gif"",""img/Fire_Down_Distractor.gif"",""img/Fire_Down_Distractor.gif"",""img/Fire_Down_Distractor.gif"",""img/Fire_Down_Distractor.gif"",""img/Fire_Down_Distractor.gif"",""img/Fire_Down_Distractor.gif"",""img/Fire_Down_Distractor.gif"",""img/Fire_Down_Distractor.gif"",""img/Fire_Down_Distractor.gif""]","5","targetUp_distractorsDown"
"","","","","","html-keyboard-response","202","448867","0.0-14.0-0.0-0.94","601ae161bca3983decaca14d","619531dcf66c91622fa1b861","61959621ea5e274bdae7ccfe","null","","null","","","","","main_T1_ITI","","","","",""
"","","","","","visual-search-circle","203","452167","0.0-14.0-0.0-1.94","601ae161bca3983decaca14d","619531dcf66c91622fa1b861","61959621ea5e274bdae7ccfe","2289","","d","true","[[95,80],[0,323],[131,548],[389,586],[579,408],[559,149],[343,3]]","true","7","main_T2_Trial","d","img/Fire_Up_Target.gif","[""img/Fire_Down_Distractor.gif"",""img/Fire_Down_Distractor.gif"",""img/Fire_Down_Distractor.gif"",""img/Fire_Down_Distractor.gif"",""img/Fire_Down_Distractor.gif"",""img/Fire_Down_Distractor.gif"",""img/Fire_Down_Distractor.gif"",""img/Fire_Down_Distractor.gif"",""img/Fire_Down_Distractor.gif"",""img/Fire_Down_Distractor.gif"",""img/Fire_Down_Distractor.gif"",""img/Fire_Down_Distractor.gif""]","7","targetUp_distractorsDown"
"","","","","","html-keyboard-response","204","452175","0.0-14.0-0.0-0.95","601ae161bca3983decaca14d","619531dcf66c91622fa1b861","61959621ea5e274bdae7ccfe","null","","null","","","","","main_T1_ITI","","","","",""
"","","","","","visual-search-circle","205","455297","0.0-14.0-0.0-1.95","601ae161bca3983decaca14d","619531dcf66c91622fa1b861","61959621ea5e274bdae7ccfe","2105","","d","true","[[450,559],[589,377],[559,150],[377,10],[150,40],[10,222],[40,449],[222,589]]","true","8","main_T2_Trial","d","img/Fire_Down_Target.gif","[""img/Fire_Up_Distractor.gif"",""img/Fire_Up_Distractor.gif"",""img/Fire_Up_Distractor.gif"",""img/Fire_Up_Distractor.gif"",""img/Fire_Up_Distractor.gif"",""img/Fire_Up_Distractor.gif"",""img/Fire_Up_Distractor.gif"",""img/Fire_Up_Distractor.gif"",""img/Fire_Up_Distractor.gif"",""img/Fire_Up_Distractor.gif"",""img/Fire_Up_Distractor.gif"",""img/Fire_Up_Distractor.gif""]","8","targetDown_distractorsUp"
"","","","","","html-keyboard-response","206","455299","0.0-14.0-0.0-0.96","601ae161bca3983decaca14d","619531dcf66c91622fa1b861","61959621ea5e274bdae7ccfe","null","","null","","","","","main_T1_ITI","","","","",""
"","","","","","visual-search-circle","207","460581","0.0-14.0-0.0-1.96","601ae161bca3983decaca14d","619531dcf66c91622fa1b861","61959621ea5e274bdae7ccfe","4265","","d","true","[[387,586],[578,410],[560,150],[345,3],[96,79],[0,321],[130,547]]","true","7","main_T2_Trial","d","img/Fire_Up_Target.gif","[""img/Fire_Down_Distractor.gif"",""img/Fire_Down_Distractor.gif"",""img/Fire_Down_Distractor.gif"",""img/Fire_Down_Distractor.gif"",""img/Fire_Down_Distractor.gif"",""img/Fire_Down_Distractor.gif"",""img/Fire_Down_Distractor.gif"",""img/Fire_Down_Distractor.gif"",""img/Fire_Down_Distractor.gif"",""img/Fire_Down_Distractor.gif"",""img/Fire_Down_Distractor.gif"",""img/Fire_Down_Distractor.gif""]","7","targetUp_distractorsDown"
"","","","","","html-keyboard-response","208","460582","0.0-14.0-0.0-0.97","601ae161bca3983decaca14d","619531dcf66c91622fa1b861","61959621ea5e274bdae7ccfe","null","","null","","","","","main_T1_ITI","","","","",""
"","","","","","visual-search-circle","209","465713","0.0-14.0-0.0-1.97","601ae161bca3983decaca14d","619531dcf66c91622fa1b861","61959621ea5e274bdae7ccfe","4125","","d","true","[[599,315],[499,75],[248,4],[36,155],[23,415],[218,588],[474,544]]","true","7","main_T2_Trial","d","img/Fire_Up_Target.gif","[""img/Fire_Down_Distractor.gif"",""img/Fire_Down_Distractor.gif"",""img/Fire_Down_Distractor.gif"",""img/Fire_Down_Distractor.gif"",""img/Fire_Down_Distractor.gif"",""img/Fire_Down_Distractor.gif"",""img/Fire_Down_Distractor.gif"",""img/Fire_Down_Distractor.gif"",""img/Fire_Down_Distractor.gif"",""img/Fire_Down_Distractor.gif"",""img/Fire_Down_Distractor.gif"",""img/Fire_Down_Distractor.gif""]","7","targetUp_distractorsDown"
"","","","","","html-keyboard-response","210","465714","0.0-14.0-0.0-0.98","601ae161bca3983decaca14d","619531dcf66c91622fa1b861","61959621ea5e274bdae7ccfe","null","","null","","","","","main_T1_ITI","","","","",""
"","","","","","visual-search-circle","211","468597","0.0-14.0-0.0-1.98","601ae161bca3983decaca14d","619531dcf66c91622fa1b861","61959621ea5e274bdae7ccfe","1871","","d","true","[[326,1],[1,273],[273,598],[598,326]]","true","4","main_T2_Trial","d","img/Fire_Down_Target.gif","[""img/Fire_Up_Distractor.gif"",""img/Fire_Up_Distractor.gif"",""img/Fire_Up_Distractor.gif"",""img/Fire_Up_Distractor.gif"",""img/Fire_Up_Distractor.gif"",""img/Fire_Up_Distractor.gif"",""img/Fire_Up_Distractor.gif"",""img/Fire_Up_Distractor.gif"",""img/Fire_Up_Distractor.gif"",""img/Fire_Up_Distractor.gif"",""img/Fire_Up_Distractor.gif"",""img/Fire_Up_Distractor.gif""]","4","targetDown_distractorsUp"
"","","","","","html-keyboard-response","212","475369","0.0-14.0-0.0-0.99","601ae161bca3983decaca14d","619531dcf66c91622fa1b861","61959621ea5e274bdae7ccfe","6765","Wow! You've completed 100 out of 160 trials! </p> <p>  </p><p> Take a quick break, then press any key when you're ready to continue."," ","","","","","main_T1_ITI","","","","",""
"","","","","","visual-search-circle","213","479153","0.0-14.0-0.0-1.99","601ae161bca3983decaca14d","619531dcf66c91622fa1b861","61959621ea5e274bdae7ccfe","2775","","s","true","[[533,488],[580,192],[346,3],[66,111],[19,407],[253,596]]","false","6","main_T2_Trial","s","img/Fire_Up_Target.gif","[""img/Fire_Down_Distractor.gif"",""img/Fire_Down_Distractor.gif"",""img/Fire_Down_Distractor.gif"",""img/Fire_Down_Distractor.gif"",""img/Fire_Down_Distractor.gif"",""img/Fire_Down_Distractor.gif"",""img/Fire_Down_Distractor.gif"",""img/Fire_Down_Distractor.gif"",""img/Fire_Down_Distractor.gif"",""img/Fire_Down_Distractor.gif"",""img/Fire_Down_Distractor.gif"",""img/Fire_Down_Distractor.gif""]","6","targetUp_distractorsDown"
"","","","","","html-keyboard-response","214","479160","0.0-14.0-0.0-0.100","601ae161bca3983decaca14d","619531dcf66c91622fa1b861","61959621ea5e274bdae7ccfe","null","","null","","","","","main_T1_ITI","","","","",""
"","","","","","visual-search-circle","215","481390","0.0-14.0-0.0-1.100","601ae161bca3983decaca14d","619531dcf66c91622fa1b861","61959621ea5e274bdae7ccfe","1223","","s","true","[[341,2],[30,168],[91,515],[440,564],[595,247]]","false","5","main_T2_Trial","s","img/Fire_Down_Target.gif","[""img/Fire_Up_Distractor.gif"",""img/Fire_Up_Distractor.gif"",""img/Fire_Up_Distractor.gif"",""img/Fire_Up_Distractor.gif"",""img/Fire_Up_Distractor.gif"",""img/Fire_Up_Distractor.gif"",""img/Fire_Up_Distractor.gif"",""img/Fire_Up_Distractor.gif"",""img/Fire_Up_Distractor.gif"",""img/Fire_Up_Distractor.gif"",""img/Fire_Up_Distractor.gif"",""img/Fire_Up_Distractor.gif""]","5","targetDown_distractorsUp"
"","","","","","html-keyboard-response","216","481391","0.0-14.0-0.0-0.101","601ae161bca3983decaca14d","619531dcf66c91622fa1b861","61959621ea5e274bdae7ccfe","null","","null","","","","","main_T1_ITI","","","","",""
"","","","","","visual-search-circle","217","486768","0.0-14.0-0.0-1.101","601ae161bca3983decaca14d","619531dcf66c91622fa1b861","61959621ea5e274bdae7ccfe","4357","","s","true","[[11,382],[154,562],[382,588],[562,445],[588,217],[445,37],[217,11],[37,154]]","false","8","main_T2_Trial","s","img/Fire_Up_Target.gif","[""img/Fire_Down_Distractor.gif"",""img/Fire_Down_Distractor.gif"",""img/Fire_Down_Distractor.gif"",""img/Fire_Down_Distractor.gif"",""img/Fire_Down_Distractor.gif"",""img/Fire_Down_Distractor.gif"",""img/Fire_Down_Distractor.gif"",""img/Fire_Down_Distractor.gif"",""img/Fire_Down_Distractor.gif"",""img/Fire_Down_Distractor.gif"",""img/Fire_Down_Distractor.gif"",""img/Fire_Down_Distractor.gif""]","8","targetUp_distractorsDown"
"","","","","","html-keyboard-response","218","486769","0.0-14.0-0.0-0.102","601ae161bca3983decaca14d","619531dcf66c91622fa1b861","61959621ea5e274bdae7ccfe","null","","null","","","","","main_T1_ITI","","","","",""
