"success","timeout","failed_images","failed_audio","failed_video","trial_type","trial_index","time_elapsed","internal_node_id","subject_id","study_id","session_id","rt","stimulus","response","correct","locations","target_present","set_size","task","correct_response","target","foilCM","setSizeCM","searchCondition"
"true","false","[]","[]","[]","preload","0","16187","0.0-0.0","6030050a5bdba4dd09d142f4","619531dcf66c91622fa1b861","619595b47707942196f23d91","","","","","","","","","","","","",""
"true","","","","","fullscreen","1","21173","0.0-1.0","6030050a5bdba4dd09d142f4","619531dcf66c91622fa1b861","619595b47707942196f23d91","","","","","","","","","","","","",""
"","","","","","html-keyboard-response","2","28359","0.0-2.0","6030050a5bdba4dd09d142f4","619531dcf66c91622fa1b861","619595b47707942196f23d91","7185.200000017881","What a beautiful Wednesday to do some awesome science! </p> <p>  </p><p> </p>
    By completing this survey or questionnaire, you are consenting to be in this research study. </p>
    Your participation is voluntary and you can stop at any time.
    <p> [Press any key to continue.] </p>
    
    "," ","","","","","","","","","",""
"","","","","","video-keyboard-response","3","73657","0.0-3.0","6030050a5bdba4dd09d142f4","619531dcf66c91622fa1b861","619595b47707942196f23d91","45294.29999998212","[""video/TaskInstructions.mp4""]"," ","","","","","","","","","",""
"","","","","","html-keyboard-response","4","78851","0.0-4.0","6030050a5bdba4dd09d142f4","619531dcf66c91622fa1b861","619595b47707942196f23d91","5193.0999999940395","
    <p>First, we're going to do a few practice trials to make sure you understand the task. You will recieve feedback on each trial. </p>
    <p>[Press any key to begin the familiarization phase.]</p>
    "," ","","","","","","","","","",""
"","","","","","visual-search-circle","5","82102","0.0-5.0-0.0","6030050a5bdba4dd09d142f4","619531dcf66c91622fa1b861","619595b47707942196f23d91","2164.4000000059605","","d","true","[[591,372],[372,8],[8,227],[227,591]]","true","4","training","d","","","",""
"","","","","","html-keyboard-response","6","90520","0.0-6.0","6030050a5bdba4dd09d142f4","619531dcf66c91622fa1b861","619595b47707942196f23d91","8416.40000000596"," <div style='float: center; '><img src='img/feedbackRight.png'></img> </div> "," ","","","","","","","","","",""
"","","","","","visual-search-circle","7","94234","0.0-7.0-0.0","6030050a5bdba4dd09d142f4","619531dcf66c91622fa1b861","619595b47707942196f23d91","2702.5","","s","true","[[454,557],[557,145],[145,42],[42,454]]","false","4","training","s","","","",""
"","","","","","html-keyboard-response","8","95300","0.0-8.0","6030050a5bdba4dd09d142f4","619531dcf66c91622fa1b861","619595b47707942196f23d91","1064.7000000178814"," <div style='float: center; '><img src='img/feedbackRight.png'></img> </div> "," ","","","","","","","","","",""
"","","","","","visual-search-circle","9","98784","0.0-9.0-0.0","6030050a5bdba4dd09d142f4","619531dcf66c91622fa1b861","619595b47707942196f23d91","2467.5999999940395","","s","true","[[599,320],[467,51],[168,30],[0,279],[132,548],[431,569]]","false","6","training","s","","","",""
"","","","","","html-keyboard-response","10","99832","0.0-10.0","6030050a5bdba4dd09d142f4","619531dcf66c91622fa1b861","619595b47707942196f23d91","1047.7000000178814"," <div style='float: center; '><img src='img/feedbackRight.png'></img> </div> "," ","","","","","","","","","",""
"","","","","","visual-search-circle","11","102673","0.0-11.0-0.0","6030050a5bdba4dd09d142f4","619531dcf66c91622fa1b861","619595b47707942196f23d91","1821.4000000059605","","d","true","[[182,23],[21,187],[23,417],[187,578],[417,576],[578,412],[576,182],[412,21]]","true","8","training","d","","","",""
"","","","","","html-keyboard-response","12","103752","0.0-12.0","6030050a5bdba4dd09d142f4","619531dcf66c91622fa1b861","619595b47707942196f23d91","1078.0999999940395"," <div style='float: center; '><img src='img/feedbackRight.png'></img> </div> "," ","","","","","","","","","",""
"","","","","","video-keyboard-response","13","111360","0.0-13.0","6030050a5bdba4dd09d142f4","619531dcf66c91622fa1b861","619595b47707942196f23d91","7605.699999988079","[""video/endTraining.mp4""]"," ","","","","","","","","","",""
"","","","","","html-keyboard-response","14","111363","0.0-14.0-0.0-0.0","6030050a5bdba4dd09d142f4","619531dcf66c91622fa1b861","619595b47707942196f23d91","null","","null","","","","","main_T1_ITI","","","","",""
"","","","","","visual-search-circle","15","114626","0.0-14.0-0.0-1.0","6030050a5bdba4dd09d142f4","619531dcf66c91622fa1b861","619595b47707942196f23d91","2255","","d","false","[[8,227],[227,591],[591,372],[372,8]]","false","4","main_T2_Trial","s","img/Fire_Up_Target.gif","[""img/Fire_Down_Distractor.gif"",""img/Fire_Down_Distractor.gif"",""img/Fire_Down_Distractor.gif"",""img/Fire_Down_Distractor.gif"",""img/Fire_Down_Distractor.gif"",""img/Fire_Down_Distractor.gif"",""img/Fire_Down_Distractor.gif"",""img/Fire_Down_Distractor.gif"",""img/Fire_Down_Distractor.gif"",""img/Fire_Down_Distractor.gif"",""img/Fire_Down_Distractor.gif"",""img/Fire_Down_Distractor.gif""]","4","targetUp_distractorsDown"
"","","","","","html-keyboard-response","16","114630","0.0-14.0-0.0-0.1","6030050a5bdba4dd09d142f4","619531dcf66c91622fa1b861","619595b47707942196f23d91","null","","null","","","","","main_T1_ITI","","","","",""
"","","","","","visual-search-circle","17","117966","0.0-14.0-0.0-1.1","6030050a5bdba4dd09d142f4","619531dcf66c91622fa1b861","619595b47707942196f23d91","2324.300000011921","","s","true","[[586,387],[547,130],[321,0],[79,96],[3,345],[150,560],[410,578]]","false","7","main_T2_Trial","s","img/Fire_Up_Target.gif","[""img/Fire_Down_Distractor.gif"",""img/Fire_Down_Distractor.gif"",""img/Fire_Down_Distractor.gif"",""img/Fire_Down_Distractor.gif"",""img/Fire_Down_Distractor.gif"",""img/Fire_Down_Distractor.gif"",""img/Fire_Down_Distractor.gif"",""img/Fire_Down_Distractor.gif"",""img/Fire_Down_Distractor.gif"",""img/Fire_Down_Distractor.gif"",""img/Fire_Down_Distractor.gif"",""img/Fire_Down_Distractor.gif""]","7","targetUp_distractorsDown"
"","","","","","html-keyboard-response","18","117975","0.0-14.0-0.0-0.2","6030050a5bdba4dd09d142f4","619531dcf66c91622fa1b861","619595b47707942196f23d91","null","","null","","","","","main_T1_ITI","","","","",""
"","","","","","visual-search-circle","19","121725","0.0-14.0-0.0-1.2","6030050a5bdba4dd09d142f4","619531dcf66c91622fa1b861","619595b47707942196f23d91","2742.4000000059605","","s","false","[[2,263],[63,484],[263,597],[484,536],[597,336],[536,115],[336,2],[115,63]]","true","8","main_T2_Trial","d","img/Fire_Up_Target.gif","[""img/Fire_Down_Distractor.gif"",""img/Fire_Down_Distractor.gif"",""img/Fire_Down_Distractor.gif"",""img/Fire_Down_Distractor.gif"",""img/Fire_Down_Distractor.gif"",""img/Fire_Down_Distractor.gif"",""img/Fire_Down_Distractor.gif"",""img/Fire_Down_Distractor.gif"",""img/Fire_Down_Distractor.gif"",""img/Fire_Down_Distractor.gif"",""img/Fire_Down_Distractor.gif"",""img/Fire_Down_Distractor.gif""]","8","targetUp_distractorsDown"
"","","","","","html-keyboard-response","20","121741","0.0-14.0-0.0-0.3","6030050a5bdba4dd09d142f4","619531dcf66c91622fa1b861","619595b47707942196f23d91","null","","null","","","","","main_T1_ITI","","","","",""
"","","","","","visual-search-circle","21","125155","0.0-14.0-0.0-1.3","6030050a5bdba4dd09d142f4","619531dcf66c91622fa1b861","619595b47707942196f23d91","2401.300000011921","","s","true","[[5,242],[242,594],[594,357],[357,5]]","false","4","main_T2_Trial","s","img/Fire_Down_Target.gif","[""img/Fire_Up_Distractor.gif"",""img/Fire_Up_Distractor.gif"",""img/Fire_Up_Distractor.gif"",""img/Fire_Up_Distractor.gif"",""img/Fire_Up_Distractor.gif"",""img/Fire_Up_Distractor.gif"",""img/Fire_Up_Distractor.gif"",""img/Fire_Up_Distractor.gif"",""img/Fire_Up_Distractor.gif"",""img/Fire_Up_Distractor.gif"",""img/Fire_Up_Distractor.gif"",""img/Fire_Up_Distractor.gif""]","4","targetDown_distractorsUp"
"","","","","","html-keyboard-response","22","125172","0.0-14.0-0.0-0.4","6030050a5bdba4dd09d142f4","619531dcf66c91622fa1b861","619595b47707942196f23d91","null","","null","","","","","main_T1_ITI","","","","",""
"","","","","","visual-search-circle","23","132109","0.0-14.0-0.0-1.4","6030050a5bdba4dd09d142f4","619531dcf66c91622fa1b861","619595b47707942196f23d91","5923.600000023842","","s","true","[[581,402],[571,173],[402,18],[173,28],[18,197],[28,426],[197,581],[426,571]]","false","8","main_T2_Trial","s","img/Fire_Down_Target.gif","[""img/Fire_Up_Distractor.gif"",""img/Fire_Up_Distractor.gif"",""img/Fire_Up_Distractor.gif"",""img/Fire_Up_Distractor.gif"",""img/Fire_Up_Distractor.gif"",""img/Fire_Up_Distractor.gif"",""img/Fire_Up_Distractor.gif"",""img/Fire_Up_Distractor.gif"",""img/Fire_Up_Distractor.gif"",""img/Fire_Up_Distractor.gif"",""img/Fire_Up_Distractor.gif"",""img/Fire_Up_Distractor.gif""]","8","targetDown_distractorsUp"
"","","","","","html-keyboard-response","24","132112","0.0-14.0-0.0-0.5","6030050a5bdba4dd09d142f4","619531dcf66c91622fa1b861","619595b47707942196f23d91","null","","null","","","","","main_T1_ITI","","","","",""
"","","","","","visual-search-circle","25","135295","0.0-14.0-0.0-1.5","6030050a5bdba4dd09d142f4","619531dcf66c91622fa1b861","619595b47707942196f23d91","2164.9000000059605","","d","true","[[488,66],[235,7],[30,167],[28,428],[231,591],[485,535],[599,302]]","true","7","main_T2_Trial","d","img/Fire_Up_Target.gif","[""img/Fire_Down_Distractor.gif"",""img/Fire_Down_Distractor.gif"",""img/Fire_Down_Distractor.gif"",""img/Fire_Down_Distractor.gif"",""img/Fire_Down_Distractor.gif"",""img/Fire_Down_Distractor.gif"",""img/Fire_Down_Distractor.gif"",""img/Fire_Down_Distractor.gif"",""img/Fire_Down_Distractor.gif"",""img/Fire_Down_Distractor.gif"",""img/Fire_Down_Distractor.gif"",""img/Fire_Down_Distractor.gif""]","7","targetUp_distractorsDown"
"","","","","","html-keyboard-response","26","135297","0.0-14.0-0.0-0.6","6030050a5bdba4dd09d142f4","619531dcf66c91622fa1b861","619595b47707942196f23d91","null","","null","","","","","main_T1_ITI","","","","",""
"","","","","","visual-search-circle","27","143365","0.0-14.0-0.0-1.6","6030050a5bdba4dd09d142f4","619531dcf66c91622fa1b861","619595b47707942196f23d91","7061","","d","true","[[84,508],[328,598],[551,464],[584,205],[404,18],[144,43],[2,261]]","true","7","main_T2_Trial","d","img/Fire_Up_Target.gif","[""img/Fire_Down_Distractor.gif"",""img/Fire_Down_Distractor.gif"",""img/Fire_Down_Distractor.gif"",""img/Fire_Down_Distractor.gif"",""img/Fire_Down_Distractor.gif"",""img/Fire_Down_Distractor.gif"",""img/Fire_Down_Distractor.gif"",""img/Fire_Down_Distractor.gif"",""img/Fire_Down_Distractor.gif"",""img/Fire_Down_Distractor.gif"",""img/Fire_Down_Distractor.gif"",""img/Fire_Down_Distractor.gif""]","7","targetUp_distractorsDown"
"","","","","","html-keyboard-response","28","143367","0.0-14.0-0.0-0.7","6030050a5bdba4dd09d142f4","619531dcf66c91622fa1b861","619595b47707942196f23d91","null","","null","","","","","main_T1_ITI","","","","",""
"","","","","","visual-search-circle","29","147995","0.0-14.0-0.0-1.7","6030050a5bdba4dd09d142f4","619531dcf66c91622fa1b861","619595b47707942196f23d91","3616.5","","s","true","[[548,132],[357,5],[132,51],[5,242],[51,467],[242,594],[467,548],[594,357]]","false","8","main_T2_Trial","s","img/Fire_Down_Target.gif","[""img/Fire_Up_Distractor.gif"",""img/Fire_Up_Distractor.gif"",""img/Fire_Up_Distractor.gif"",""img/Fire_Up_Distractor.gif"",""img/Fire_Up_Distractor.gif"",""img/Fire_Up_Distractor.gif"",""img/Fire_Up_Distractor.gif"",""img/Fire_Up_Distractor.gif"",""img/Fire_Up_Distractor.gif"",""img/Fire_Up_Distractor.gif"",""img/Fire_Up_Distractor.gif"",""img/Fire_Up_Distractor.gif""]","8","targetDown_distractorsUp"
"","","","","","html-keyboard-response","30","148004","0.0-14.0-0.0-0.8","6030050a5bdba4dd09d142f4","619531dcf66c91622fa1b861","619595b47707942196f23d91","null","","null","","","","","main_T1_ITI","","","","",""
"","","","","","visual-search-circle","31","152608","0.0-14.0-0.0-1.8","6030050a5bdba4dd09d142f4","619531dcf66c91622fa1b861","619595b47707942196f23d91","3590.4000000059605","","s","true","[[467,51],[115,63],[18,402],[310,599],[588,382]]","false","5","main_T2_Trial","s","img/Fire_Up_Target.gif","[""img/Fire_Down_Distractor.gif"",""img/Fire_Down_Distractor.gif"",""img/Fire_Down_Distractor.gif"",""img/Fire_Down_Distractor.gif"",""img/Fire_Down_Distractor.gif"",""img/Fire_Down_Distractor.gif"",""img/Fire_Down_Distractor.gif"",""img/Fire_Down_Distractor.gif"",""img/Fire_Down_Distractor.gif"",""img/Fire_Down_Distractor.gif"",""img/Fire_Down_Distractor.gif"",""img/Fire_Down_Distractor.gif""]","5","targetUp_distractorsDown"
"","","","","","html-keyboard-response","32","152616","0.0-14.0-0.0-0.9","6030050a5bdba4dd09d142f4","619531dcf66c91622fa1b861","619595b47707942196f23d91","null","","null","","","","","main_T1_ITI","","","","",""
"","","","","","visual-search-circle","33","155857","0.0-14.0-0.0-1.9","6030050a5bdba4dd09d142f4","619531dcf66c91622fa1b861","619595b47707942196f23d91","2226.0999999940395","","d","true","[[35,440],[352,595],[597,341],[431,30],[84,91]]","true","5","main_T2_Trial","d","img/Fire_Up_Target.gif","[""img/Fire_Down_Distractor.gif"",""img/Fire_Down_Distractor.gif"",""img/Fire_Down_Distractor.gif"",""img/Fire_Down_Distractor.gif"",""img/Fire_Down_Distractor.gif"",""img/Fire_Down_Distractor.gif"",""img/Fire_Down_Distractor.gif"",""img/Fire_Down_Distractor.gif"",""img/Fire_Down_Distractor.gif"",""img/Fire_Down_Distractor.gif"",""img/Fire_Down_Distractor.gif"",""img/Fire_Down_Distractor.gif""]","5","targetUp_distractorsDown"
"","","","","","html-keyboard-response","34","155859","0.0-14.0-0.0-0.10","6030050a5bdba4dd09d142f4","619531dcf66c91622fa1b861","619595b47707942196f23d91","null","","null","","","","","main_T1_ITI","","","","",""
"","","","","","visual-search-circle","35","159129","0.0-14.0-0.0-1.10","6030050a5bdba4dd09d142f4","619531dcf66c91622fa1b861","619595b47707942196f23d91","2252.4000000059605","","s","true","[[536,115],[302,0],[67,110],[6,363],[167,568],[427,571],[591,369]]","false","7","main_T2_Trial","s","img/Fire_Down_Target.gif","[""img/Fire_Up_Distractor.gif"",""img/Fire_Up_Distractor.gif"",""img/Fire_Up_Distractor.gif"",""img/Fire_Up_Distractor.gif"",""img/Fire_Up_Distractor.gif"",""img/Fire_Up_Distractor.gif"",""img/Fire_Up_Distractor.gif"",""img/Fire_Up_Distractor.gif"",""img/Fire_Up_Distractor.gif"",""img/Fire_Up_Distractor.gif"",""img/Fire_Up_Distractor.gif"",""img/Fire_Up_Distractor.gif""]","7","targetDown_distractorsUp"
"","","","","","html-keyboard-response","36","159130","0.0-14.0-0.0-0.11","6030050a5bdba4dd09d142f4","619531dcf66c91622fa1b861","619595b47707942196f23d91","null","","null","","","","","main_T1_ITI","","","","",""
"","","","","","visual-search-circle","37","162759","0.0-14.0-0.0-1.11","6030050a5bdba4dd09d142f4","619531dcf66c91622fa1b861","619595b47707942196f23d91","2625.5999999940395","","s","true","[[258,2],[21,187],[63,484],[341,597],[578,412],[536,115]]","false","6","main_T2_Trial","s","img/Fire_Up_Target.gif","[""img/Fire_Down_Distractor.gif"",""img/Fire_Down_Distractor.gif"",""img/Fire_Down_Distractor.gif"",""img/Fire_Down_Distractor.gif"",""img/Fire_Down_Distractor.gif"",""img/Fire_Down_Distractor.gif"",""img/Fire_Down_Distractor.gif"",""img/Fire_Down_Distractor.gif"",""img/Fire_Down_Distractor.gif"",""img/Fire_Down_Distractor.gif"",""img/Fire_Down_Distractor.gif"",""img/Fire_Down_Distractor.gif""]","6","targetUp_distractorsDown"
"","","","","","html-keyboard-response","38","162763","0.0-14.0-0.0-0.12","6030050a5bdba4dd09d142f4","619531dcf66c91622fa1b861","619595b47707942196f23d91","null","","null","","","","","main_T1_ITI","","","","",""
"","","","","","visual-search-circle","39","166446","0.0-14.0-0.0-1.12","6030050a5bdba4dd09d142f4","619531dcf66c91622fa1b861","619595b47707942196f23d91","2667.199999988079","","d","true","[[141,45],[7,232],[45,458],[232,592],[458,554],[592,367],[554,141],[367,7]]","true","8","main_T2_Trial","d","img/Fire_Down_Target.gif","[""img/Fire_Up_Distractor.gif"",""img/Fire_Up_Distractor.gif"",""img/Fire_Up_Distractor.gif"",""img/Fire_Up_Distractor.gif"",""img/Fire_Up_Distractor.gif"",""img/Fire_Up_Distractor.gif"",""img/Fire_Up_Distractor.gif"",""img/Fire_Up_Distractor.gif"",""img/Fire_Up_Distractor.gif"",""img/Fire_Up_Distractor.gif"",""img/Fire_Up_Distractor.gif"",""img/Fire_Up_Distractor.gif""]","8","targetDown_distractorsUp"
"","","","","","html-keyboard-response","40","166451","0.0-14.0-0.0-0.13","6030050a5bdba4dd09d142f4","619531dcf66c91622fa1b861","619595b47707942196f23d91","null","","null","","","","","main_T1_ITI","","","","",""
"","","","","","visual-search-circle","41","169537","0.0-14.0-0.0-1.13","6030050a5bdba4dd09d142f4","619531dcf66c91622fa1b861","619595b47707942196f23d91","2069.4000000059605","","s","true","[[63,115],[115,536],[536,484],[484,63]]","false","4","main_T2_Trial","s","img/Fire_Up_Target.gif","[""img/Fire_Down_Distractor.gif"",""img/Fire_Down_Distractor.gif"",""img/Fire_Down_Distractor.gif"",""img/Fire_Down_Distractor.gif"",""img/Fire_Down_Distractor.gif"",""img/Fire_Down_Distractor.gif"",""img/Fire_Down_Distractor.gif"",""img/Fire_Down_Distractor.gif"",""img/Fire_Down_Distractor.gif"",""img/Fire_Down_Distractor.gif"",""img/Fire_Down_Distractor.gif"",""img/Fire_Down_Distractor.gif""]","4","targetUp_distractorsDown"
"","","","","","html-keyboard-response","42","169545","0.0-14.0-0.0-0.14","6030050a5bdba4dd09d142f4","619531dcf66c91622fa1b861","619595b47707942196f23d91","null","","null","","","","","main_T1_ITI","","","","",""
"","","","","","visual-search-circle","43","172216","0.0-14.0-0.0-1.14","6030050a5bdba4dd09d142f4","619531dcf66c91622fa1b861","619595b47707942196f23d91","1659.300000011921","","d","false","[[594,242],[336,2],[28,173],[95,519],[445,562]]","false","5","main_T2_Trial","s","img/Fire_Down_Target.gif","[""img/Fire_Up_Distractor.gif"",""img/Fire_Up_Distractor.gif"",""img/Fire_Up_Distractor.gif"",""img/Fire_Up_Distractor.gif"",""img/Fire_Up_Distractor.gif"",""img/Fire_Up_Distractor.gif"",""img/Fire_Up_Distractor.gif"",""img/Fire_Up_Distractor.gif"",""img/Fire_Up_Distractor.gif"",""img/Fire_Up_Distractor.gif"",""img/Fire_Up_Distractor.gif"",""img/Fire_Up_Distractor.gif""]","5","targetDown_distractorsUp"
"","","","","","html-keyboard-response","44","172219","0.0-14.0-0.0-0.15","6030050a5bdba4dd09d142f4","619531dcf66c91622fa1b861","619595b47707942196f23d91","null","","null","","","","","main_T1_ITI","","","","",""
"","","","","","visual-search-circle","45","175080","0.0-14.0-0.0-1.15","6030050a5bdba4dd09d142f4","619531dcf66c91622fa1b861","619595b47707942196f23d91","1851.699999988079","","d","true","[[557,145],[145,42],[42,454],[454,557]]","true","4","main_T2_Trial","d","img/Fire_Up_Target.gif","[""img/Fire_Down_Distractor.gif"",""img/Fire_Down_Distractor.gif"",""img/Fire_Down_Distractor.gif"",""img/Fire_Down_Distractor.gif"",""img/Fire_Down_Distractor.gif"",""img/Fire_Down_Distractor.gif"",""img/Fire_Down_Distractor.gif"",""img/Fire_Down_Distractor.gif"",""img/Fire_Down_Distractor.gif"",""img/Fire_Down_Distractor.gif"",""img/Fire_Down_Distractor.gif"",""img/Fire_Down_Distractor.gif""]","4","targetUp_distractorsDown"
"","","","","","html-keyboard-response","46","175087","0.0-14.0-0.0-0.16","6030050a5bdba4dd09d142f4","619531dcf66c91622fa1b861","619595b47707942196f23d91","null","","null","","","","","main_T1_ITI","","","","",""
"","","","","","visual-search-circle","47","178342","0.0-14.0-0.0-1.16","6030050a5bdba4dd09d142f4","619531dcf66c91622fa1b861","619595b47707942196f23d91","2247.2000000178814","","s","true","[[597,341],[517,93],[274,1],[50,133],[14,391],[193,580],[452,558]]","false","7","main_T2_Trial","s","img/Fire_Down_Target.gif","[""img/Fire_Up_Distractor.gif"",""img/Fire_Up_Distractor.gif"",""img/Fire_Up_Distractor.gif"",""img/Fire_Up_Distractor.gif"",""img/Fire_Up_Distractor.gif"",""img/Fire_Up_Distractor.gif"",""img/Fire_Up_Distractor.gif"",""img/Fire_Up_Distractor.gif"",""img/Fire_Up_Distractor.gif"",""img/Fire_Up_Distractor.gif"",""img/Fire_Up_Distractor.gif"",""img/Fire_Up_Distractor.gif""]","7","targetDown_distractorsUp"
"","","","","","html-keyboard-response","48","178345","0.0-14.0-0.0-0.17","6030050a5bdba4dd09d142f4","619531dcf66c91622fa1b861","619595b47707942196f23d91","null","","null","","","","","main_T1_ITI","","","","",""
"","","","","","visual-search-circle","49","182110","0.0-14.0-0.0-1.17","6030050a5bdba4dd09d142f4","619531dcf66c91622fa1b861","619595b47707942196f23d91","2750.0999999940395","","d","false","[[242,5],[16,202],[73,496],[357,594],[583,397],[526,103]]","false","6","main_T2_Trial","s","img/Fire_Up_Target.gif","[""img/Fire_Down_Distractor.gif"",""img/Fire_Down_Distractor.gif"",""img/Fire_Down_Distractor.gif"",""img/Fire_Down_Distractor.gif"",""img/Fire_Down_Distractor.gif"",""img/Fire_Down_Distractor.gif"",""img/Fire_Down_Distractor.gif"",""img/Fire_Down_Distractor.gif"",""img/Fire_Down_Distractor.gif"",""img/Fire_Down_Distractor.gif"",""img/Fire_Down_Distractor.gif"",""img/Fire_Down_Distractor.gif""]","6","targetUp_distractorsDown"
"","","","","","html-keyboard-response","50","182114","0.0-14.0-0.0-0.18","6030050a5bdba4dd09d142f4","619531dcf66c91622fa1b861","619595b47707942196f23d91","null","","null","","","","","main_T1_ITI","","","","",""
"","","","","","visual-search-circle","51","185396","0.0-14.0-0.0-1.18","6030050a5bdba4dd09d142f4","619531dcf66c91622fa1b861","619595b47707942196f23d91","2269.2000000178814","","d","true","[[450,40],[150,40],[0,299],[149,559],[450,559],[600,300]]","true","6","main_T2_Trial","d","img/Fire_Down_Target.gif","[""img/Fire_Up_Distractor.gif"",""img/Fire_Up_Distractor.gif"",""img/Fire_Up_Distractor.gif"",""img/Fire_Up_Distractor.gif"",""img/Fire_Up_Distractor.gif"",""img/Fire_Up_Distractor.gif"",""img/Fire_Up_Distractor.gif"",""img/Fire_Up_Distractor.gif"",""img/Fire_Up_Distractor.gif"",""img/Fire_Up_Distractor.gif"",""img/Fire_Up_Distractor.gif"",""img/Fire_Up_Distractor.gif""]","6","targetDown_distractorsUp"
"","","","","","html-keyboard-response","52","215816","0.0-14.0-0.0-0.19","6030050a5bdba4dd09d142f4","619531dcf66c91622fa1b861","619595b47707942196f23d91","30419.5","Wow! You've completed 20 out of 160 trials! </p> <p>  </p><p> Take a quick break, then press any key when you're ready to continue."," ","","","","","main_T1_ITI","","","","",""
"","","","","","visual-search-circle","53","219201","0.0-14.0-0.0-1.19","6030050a5bdba4dd09d142f4","619531dcf66c91622fa1b861","619595b47707942196f23d91","2379.9000000059605","","s","true","[[99,522],[522,500],[500,77],[77,99]]","false","4","main_T2_Trial","s","img/Fire_Down_Target.gif","[""img/Fire_Up_Distractor.gif"",""img/Fire_Up_Distractor.gif"",""img/Fire_Up_Distractor.gif"",""img/Fire_Up_Distractor.gif"",""img/Fire_Up_Distractor.gif"",""img/Fire_Up_Distractor.gif"",""img/Fire_Up_Distractor.gif"",""img/Fire_Up_Distractor.gif"",""img/Fire_Up_Distractor.gif"",""img/Fire_Up_Distractor.gif"",""img/Fire_Up_Distractor.gif"",""img/Fire_Up_Distractor.gif""]","4","targetDown_distractorsUp"
"","","","","","html-keyboard-response","54","219206","0.0-14.0-0.0-0.20","6030050a5bdba4dd09d142f4","619531dcf66c91622fa1b861","619595b47707942196f23d91","null","","null","","","","","main_T1_ITI","","","","",""
"","","","","","visual-search-circle","55","221233","0.0-14.0-0.0-1.20","6030050a5bdba4dd09d142f4","619531dcf66c91622fa1b861","619595b47707942196f23d91","1018.8000000119209","","d","true","[[600,300],[487,65],[233,7],[29,169],[29,430],[233,592],[487,534]]","true","7","main_T2_Trial","d","img/Fire_Up_Target.gif","[""img/Fire_Down_Distractor.gif"",""img/Fire_Down_Distractor.gif"",""img/Fire_Down_Distractor.gif"",""img/Fire_Down_Distractor.gif"",""img/Fire_Down_Distractor.gif"",""img/Fire_Down_Distractor.gif"",""img/Fire_Down_Distractor.gif"",""img/Fire_Down_Distractor.gif"",""img/Fire_Down_Distractor.gif"",""img/Fire_Down_Distractor.gif"",""img/Fire_Down_Distractor.gif"",""img/Fire_Down_Distractor.gif""]","7","targetUp_distractorsDown"
"","","","","","html-keyboard-response","56","221241","0.0-14.0-0.0-0.21","6030050a5bdba4dd09d142f4","619531dcf66c91622fa1b861","619595b47707942196f23d91","null","","null","","","","","main_T1_ITI","","","","",""
"","","","","","visual-search-circle","57","225177","0.0-14.0-0.0-1.21","6030050a5bdba4dd09d142f4","619531dcf66c91622fa1b861","619595b47707942196f23d91","2920.9000000059605","","d","true","[[585,392],[522,99],[237,6],[14,207],[77,500],[362,593]]","true","6","main_T2_Trial","d","img/Fire_Down_Target.gif","[""img/Fire_Up_Distractor.gif"",""img/Fire_Up_Distractor.gif"",""img/Fire_Up_Distractor.gif"",""img/Fire_Up_Distractor.gif"",""img/Fire_Up_Distractor.gif"",""img/Fire_Up_Distractor.gif"",""img/Fire_Up_Distractor.gif"",""img/Fire_Up_Distractor.gif"",""img/Fire_Up_Distractor.gif"",""img/Fire_Up_Distractor.gif"",""img/Fire_Up_Distractor.gif"",""img/Fire_Up_Distractor.gif""]","6","targetDown_distractorsUp"
"","","","","","html-keyboard-response","58","225178","0.0-14.0-0.0-0.22","6030050a5bdba4dd09d142f4","619531dcf66c91622fa1b861","619595b47707942196f23d91","null","","null","","","","","main_T1_ITI","","","","",""
"","","","","","visual-search-circle","59","227861","0.0-14.0-0.0-1.22","6030050a5bdba4dd09d142f4","619531dcf66c91622fa1b861","619595b47707942196f23d91","1674.5999999940395","","s","true","[[84,508],[508,515],[515,91],[91,84]]","false","4","main_T2_Trial","s","img/Fire_Up_Target.gif","[""img/Fire_Down_Distractor.gif"",""img/Fire_Down_Distractor.gif"",""img/Fire_Down_Distractor.gif"",""img/Fire_Down_Distractor.gif"",""img/Fire_Down_Distractor.gif"",""img/Fire_Down_Distractor.gif"",""img/Fire_Down_Distractor.gif"",""img/Fire_Down_Distractor.gif"",""img/Fire_Down_Distractor.gif"",""img/Fire_Down_Distractor.gif"",""img/Fire_Down_Distractor.gif"",""img/Fire_Down_Distractor.gif""]","4","targetUp_distractorsDown"
"","","","","","html-keyboard-response","60","227871","0.0-14.0-0.0-0.23","6030050a5bdba4dd09d142f4","619531dcf66c91622fa1b861","619595b47707942196f23d91","null","","null","","","","","main_T1_ITI","","","","",""
"","","","","","visual-search-circle","61","231334","0.0-14.0-0.0-1.23","6030050a5bdba4dd09d142f4","619531dcf66c91622fa1b861","619595b47707942196f23d91","2452.5","","s","true","[[84,91],[2,338],[144,556],[404,581],[584,394],[551,135],[328,1]]","false","7","main_T2_Trial","s","img/Fire_Up_Target.gif","[""img/Fire_Down_Distractor.gif"",""img/Fire_Down_Distractor.gif"",""img/Fire_Down_Distractor.gif"",""img/Fire_Down_Distractor.gif"",""img/Fire_Down_Distractor.gif"",""img/Fire_Down_Distractor.gif"",""img/Fire_Down_Distractor.gif"",""img/Fire_Down_Distractor.gif"",""img/Fire_Down_Distractor.gif"",""img/Fire_Down_Distractor.gif"",""img/Fire_Down_Distractor.gif"",""img/Fire_Down_Distractor.gif""]","7","targetUp_distractorsDown"
"","","","","","html-keyboard-response","62","231336","0.0-14.0-0.0-0.24","6030050a5bdba4dd09d142f4","619531dcf66c91622fa1b861","619595b47707942196f23d91","null","","null","","","","","main_T1_ITI","","","","",""
"","","","","","visual-search-circle","63","239991","0.0-14.0-0.0-1.24","6030050a5bdba4dd09d142f4","619531dcf66c91622fa1b861","619595b47707942196f23d91","7643.199999988079","","d","true","[[91,84],[8,372],[217,588],[508,515],[591,227],[382,11]]","true","6","main_T2_Trial","d","img/Fire_Down_Target.gif","[""img/Fire_Up_Distractor.gif"",""img/Fire_Up_Distractor.gif"",""img/Fire_Up_Distractor.gif"",""img/Fire_Up_Distractor.gif"",""img/Fire_Up_Distractor.gif"",""img/Fire_Up_Distractor.gif"",""img/Fire_Up_Distractor.gif"",""img/Fire_Up_Distractor.gif"",""img/Fire_Up_Distractor.gif"",""img/Fire_Up_Distractor.gif"",""img/Fire_Up_Distractor.gif"",""img/Fire_Up_Distractor.gif""]","6","targetDown_distractorsUp"
"","","","","","html-keyboard-response","64","240001","0.0-14.0-0.0-0.25","6030050a5bdba4dd09d142f4","619531dcf66c91622fa1b861","619595b47707942196f23d91","null","","null","","","","","main_T1_ITI","","","","",""
"","","","","","visual-search-circle","65","244282","0.0-14.0-0.0-1.25","6030050a5bdba4dd09d142f4","619531dcf66c91622fa1b861","619595b47707942196f23d91","3262.800000011921","","s","true","[[99,522],[522,500],[500,77],[77,99]]","false","4","main_T2_Trial","s","img/Fire_Down_Target.gif","[""img/Fire_Up_Distractor.gif"",""img/Fire_Up_Distractor.gif"",""img/Fire_Up_Distractor.gif"",""img/Fire_Up_Distractor.gif"",""img/Fire_Up_Distractor.gif"",""img/Fire_Up_Distractor.gif"",""img/Fire_Up_Distractor.gif"",""img/Fire_Up_Distractor.gif"",""img/Fire_Up_Distractor.gif"",""img/Fire_Up_Distractor.gif"",""img/Fire_Up_Distractor.gif"",""img/Fire_Up_Distractor.gif""]","4","targetDown_distractorsUp"
"","","","","","html-keyboard-response","66","244284","0.0-14.0-0.0-0.26","6030050a5bdba4dd09d142f4","619531dcf66c91622fa1b861","619595b47707942196f23d91","null","","null","","","","","main_T1_ITI","","","","",""
"","","","","","visual-search-circle","67","248289","0.0-14.0-0.0-1.26","6030050a5bdba4dd09d142f4","619531dcf66c91622fa1b861","619595b47707942196f23d91","2981.0999999940395","","s","true","[[232,7],[29,170],[30,430],[233,592],[487,534],[599,299],[486,64]]","false","7","main_T2_Trial","s","img/Fire_Up_Target.gif","[""img/Fire_Down_Distractor.gif"",""img/Fire_Down_Distractor.gif"",""img/Fire_Down_Distractor.gif"",""img/Fire_Down_Distractor.gif"",""img/Fire_Down_Distractor.gif"",""img/Fire_Down_Distractor.gif"",""img/Fire_Down_Distractor.gif"",""img/Fire_Down_Distractor.gif"",""img/Fire_Down_Distractor.gif"",""img/Fire_Down_Distractor.gif"",""img/Fire_Down_Distractor.gif"",""img/Fire_Down_Distractor.gif""]","7","targetUp_distractorsDown"
"","","","","","html-keyboard-response","68","248291","0.0-14.0-0.0-0.27","6030050a5bdba4dd09d142f4","619531dcf66c91622fa1b861","619595b47707942196f23d91","null","","null","","","","","main_T1_ITI","","","","",""
"","","","","","visual-search-circle","69","251879","0.0-14.0-0.0-1.27","6030050a5bdba4dd09d142f4","619531dcf66c91622fa1b861","619595b47707942196f23d91","2570.9000000059605","","s","true","[[35,159],[84,508],[431,569],[597,258],[352,4]]","false","5","main_T2_Trial","s","img/Fire_Down_Target.gif","[""img/Fire_Up_Distractor.gif"",""img/Fire_Up_Distractor.gif"",""img/Fire_Up_Distractor.gif"",""img/Fire_Up_Distractor.gif"",""img/Fire_Up_Distractor.gif"",""img/Fire_Up_Distractor.gif"",""img/Fire_Up_Distractor.gif"",""img/Fire_Up_Distractor.gif"",""img/Fire_Up_Distractor.gif"",""img/Fire_Up_Distractor.gif"",""img/Fire_Up_Distractor.gif"",""img/Fire_Up_Distractor.gif""]","5","targetDown_distractorsUp"
"","","","","","html-keyboard-response","70","251882","0.0-14.0-0.0-0.28","6030050a5bdba4dd09d142f4","619531dcf66c91622fa1b861","619595b47707942196f23d91","null","","null","","","","","main_T1_ITI","","","","",""
"","","","","","visual-search-circle","71","257731","0.0-14.0-0.0-1.28","6030050a5bdba4dd09d142f4","619531dcf66c91622fa1b861","619595b47707942196f23d91","4830.0999999940395","","d","true","[[567,163],[360,6],[107,69],[0,306],[118,538],[373,590],[573,424]]","true","7","main_T2_Trial","d","img/Fire_Down_Target.gif","[""img/Fire_Up_Distractor.gif"",""img/Fire_Up_Distractor.gif"",""img/Fire_Up_Distractor.gif"",""img/Fire_Up_Distractor.gif"",""img/Fire_Up_Distractor.gif"",""img/Fire_Up_Distractor.gif"",""img/Fire_Up_Distractor.gif"",""img/Fire_Up_Distractor.gif"",""img/Fire_Up_Distractor.gif"",""img/Fire_Up_Distractor.gif"",""img/Fire_Up_Distractor.gif"",""img/Fire_Up_Distractor.gif""]","7","targetDown_distractorsUp"
"","","","","","html-keyboard-response","72","257733","0.0-14.0-0.0-0.29","6030050a5bdba4dd09d142f4","619531dcf66c91622fa1b861","619595b47707942196f23d91","null","","null","","","","","main_T1_ITI","","","","",""
"","","","","","visual-search-circle","73","260719","0.0-14.0-0.0-1.29","6030050a5bdba4dd09d142f4","619531dcf66c91622fa1b861","619595b47707942196f23d91","1959.5","","d","false","[[14,392],[163,567],[392,585],[567,436],[585,207],[436,32],[207,14],[32,163]]","false","8","main_T2_Trial","s","img/Fire_Up_Target.gif","[""img/Fire_Down_Distractor.gif"",""img/Fire_Down_Distractor.gif"",""img/Fire_Down_Distractor.gif"",""img/Fire_Down_Distractor.gif"",""img/Fire_Down_Distractor.gif"",""img/Fire_Down_Distractor.gif"",""img/Fire_Down_Distractor.gif"",""img/Fire_Down_Distractor.gif"",""img/Fire_Down_Distractor.gif"",""img/Fire_Down_Distractor.gif"",""img/Fire_Down_Distractor.gif"",""img/Fire_Down_Distractor.gif""]","8","targetUp_distractorsDown"
"","","","","","html-keyboard-response","74","260731","0.0-14.0-0.0-0.30","6030050a5bdba4dd09d142f4","619531dcf66c91622fa1b861","619595b47707942196f23d91","null","","null","","","","","main_T1_ITI","","","","",""
"","","","","","visual-search-circle","75","267397","0.0-14.0-0.0-1.30","6030050a5bdba4dd09d142f4","619531dcf66c91622fa1b861","619595b47707942196f23d91","5656.199999988079","","s","false","[[320,0],[21,187],[107,529],[458,554],[591,227]]","true","5","main_T2_Trial","d","img/Fire_Down_Target.gif","[""img/Fire_Up_Distractor.gif"",""img/Fire_Up_Distractor.gif"",""img/Fire_Up_Distractor.gif"",""img/Fire_Up_Distractor.gif"",""img/Fire_Up_Distractor.gif"",""img/Fire_Up_Distractor.gif"",""img/Fire_Up_Distractor.gif"",""img/Fire_Up_Distractor.gif"",""img/Fire_Up_Distractor.gif"",""img/Fire_Up_Distractor.gif"",""img/Fire_Up_Distractor.gif"",""img/Fire_Up_Distractor.gif""]","5","targetDown_distractorsUp"
"","","","","","html-keyboard-response","76","267413","0.0-14.0-0.0-0.31","6030050a5bdba4dd09d142f4","619531dcf66c91622fa1b861","619595b47707942196f23d91","null","","null","","","","","main_T1_ITI","","","","",""
"","","","","","visual-search-circle","77","271058","0.0-14.0-0.0-1.31","6030050a5bdba4dd09d142f4","619531dcf66c91622fa1b861","619595b47707942196f23d91","2626.600000023842","","s","true","[[458,45],[232,7],[45,141],[7,367],[141,554],[367,592],[554,458],[592,232]]","false","8","main_T2_Trial","s","img/Fire_Down_Target.gif","[""img/Fire_Up_Distractor.gif"",""img/Fire_Up_Distractor.gif"",""img/Fire_Up_Distractor.gif"",""img/Fire_Up_Distractor.gif"",""img/Fire_Up_Distractor.gif"",""img/Fire_Up_Distractor.gif"",""img/Fire_Up_Distractor.gif"",""img/Fire_Up_Distractor.gif"",""img/Fire_Up_Distractor.gif"",""img/Fire_Up_Distractor.gif"",""img/Fire_Up_Distractor.gif"",""img/Fire_Up_Distractor.gif""]","8","targetDown_distractorsUp"
"","","","","","html-keyboard-response","78","271063","0.0-14.0-0.0-0.32","6030050a5bdba4dd09d142f4","619531dcf66c91622fa1b861","619595b47707942196f23d91","null","","null","","","","","main_T1_ITI","","","","",""
"","","","","","visual-search-circle","79","275093","0.0-14.0-0.0-1.32","6030050a5bdba4dd09d142f4","619531dcf66c91622fa1b861","619595b47707942196f23d91","3016.199999988079","","s","true","[[103,73],[0,312],[123,542],[379,589],[575,418],[564,158],[354,4]]","false","7","main_T2_Trial","s","img/Fire_Up_Target.gif","[""img/Fire_Down_Distractor.gif"",""img/Fire_Down_Distractor.gif"",""img/Fire_Down_Distractor.gif"",""img/Fire_Down_Distractor.gif"",""img/Fire_Down_Distractor.gif"",""img/Fire_Down_Distractor.gif"",""img/Fire_Down_Distractor.gif"",""img/Fire_Down_Distractor.gif"",""img/Fire_Down_Distractor.gif"",""img/Fire_Down_Distractor.gif"",""img/Fire_Down_Distractor.gif"",""img/Fire_Down_Distractor.gif""]","7","targetUp_distractorsDown"
"","","","","","html-keyboard-response","80","275095","0.0-14.0-0.0-0.33","6030050a5bdba4dd09d142f4","619531dcf66c91622fa1b861","619595b47707942196f23d91","null","","null","","","","","main_T1_ITI","","","","",""
"","","","","","visual-search-circle","81","282078","0.0-14.0-0.0-1.33","6030050a5bdba4dd09d142f4","619531dcf66c91622fa1b861","619595b47707942196f23d91","5965.300000011921","","s","true","[[367,7],[141,45],[7,232],[45,458],[232,592],[458,554],[592,367],[554,141]]","false","8","main_T2_Trial","s","img/Fire_Down_Target.gif","[""img/Fire_Up_Distractor.gif"",""img/Fire_Up_Distractor.gif"",""img/Fire_Up_Distractor.gif"",""img/Fire_Up_Distractor.gif"",""img/Fire_Up_Distractor.gif"",""img/Fire_Up_Distractor.gif"",""img/Fire_Up_Distractor.gif"",""img/Fire_Up_Distractor.gif"",""img/Fire_Up_Distractor.gif"",""img/Fire_Up_Distractor.gif"",""img/Fire_Up_Distractor.gif"",""img/Fire_Up_Distractor.gif""]","8","targetDown_distractorsUp"
"","","","","","html-keyboard-response","82","282080","0.0-14.0-0.0-0.34","6030050a5bdba4dd09d142f4","619531dcf66c91622fa1b861","619595b47707942196f23d91","null","","null","","","","","main_T1_ITI","","","","",""
"","","","","","visual-search-circle","83","284507","0.0-14.0-0.0-1.34","6030050a5bdba4dd09d142f4","619531dcf66c91622fa1b861","619595b47707942196f23d91","1412.5999999940395","","d","true","[[7,232],[232,592],[592,367],[367,7]]","true","4","main_T2_Trial","d","img/Fire_Down_Target.gif","[""img/Fire_Up_Distractor.gif"",""img/Fire_Up_Distractor.gif"",""img/Fire_Up_Distractor.gif"",""img/Fire_Up_Distractor.gif"",""img/Fire_Up_Distractor.gif"",""img/Fire_Up_Distractor.gif"",""img/Fire_Up_Distractor.gif"",""img/Fire_Up_Distractor.gif"",""img/Fire_Up_Distractor.gif"",""img/Fire_Up_Distractor.gif"",""img/Fire_Up_Distractor.gif"",""img/Fire_Up_Distractor.gif""]","4","targetDown_distractorsUp"
"","","","","","html-keyboard-response","84","284510","0.0-14.0-0.0-0.35","6030050a5bdba4dd09d142f4","619531dcf66c91622fa1b861","619595b47707942196f23d91","null","","null","","","","","main_T1_ITI","","","","",""
"","","","","","visual-search-circle","85","287593","0.0-14.0-0.0-1.35","6030050a5bdba4dd09d142f4","619531dcf66c91622fa1b861","619595b47707942196f23d91","2067.4000000059605","","d","true","[[594,357],[548,132],[357,5],[132,51],[5,242],[51,467],[242,594],[467,548]]","true","8","main_T2_Trial","d","img/Fire_Down_Target.gif","[""img/Fire_Up_Distractor.gif"",""img/Fire_Up_Distractor.gif"",""img/Fire_Up_Distractor.gif"",""img/Fire_Up_Distractor.gif"",""img/Fire_Up_Distractor.gif"",""img/Fire_Up_Distractor.gif"",""img/Fire_Up_Distractor.gif"",""img/Fire_Up_Distractor.gif"",""img/Fire_Up_Distractor.gif"",""img/Fire_Up_Distractor.gif"",""img/Fire_Up_Distractor.gif"",""img/Fire_Up_Distractor.gif""]","8","targetDown_distractorsUp"
"","","","","","html-keyboard-response","86","287595","0.0-14.0-0.0-0.36","6030050a5bdba4dd09d142f4","619531dcf66c91622fa1b861","619595b47707942196f23d91","null","","null","","","","","main_T1_ITI","","","","",""
"","","","","","visual-search-circle","87","291275","0.0-14.0-0.0-1.36","6030050a5bdba4dd09d142f4","619531dcf66c91622fa1b861","619595b47707942196f23d91","2666.5","","s","true","[[0,284],[136,551],[436,567],[599,315],[463,48],[163,32]]","false","6","main_T2_Trial","s","img/Fire_Up_Target.gif","[""img/Fire_Down_Distractor.gif"",""img/Fire_Down_Distractor.gif"",""img/Fire_Down_Distractor.gif"",""img/Fire_Down_Distractor.gif"",""img/Fire_Down_Distractor.gif"",""img/Fire_Down_Distractor.gif"",""img/Fire_Down_Distractor.gif"",""img/Fire_Down_Distractor.gif"",""img/Fire_Down_Distractor.gif"",""img/Fire_Down_Distractor.gif"",""img/Fire_Down_Distractor.gif"",""img/Fire_Down_Distractor.gif""]","6","targetUp_distractorsDown"
"","","","","","html-keyboard-response","88","291283","0.0-14.0-0.0-0.37","6030050a5bdba4dd09d142f4","619531dcf66c91622fa1b861","619595b47707942196f23d91","null","","null","","","","","main_T1_ITI","","","","",""
"","","","","","visual-search-circle","89","294838","0.0-14.0-0.0-1.37","6030050a5bdba4dd09d142f4","619531dcf66c91622fa1b861","619595b47707942196f23d91","2543.5","","s","true","[[581,197],[426,28],[197,18],[28,173],[18,402],[173,571],[402,581],[571,426]]","false","8","main_T2_Trial","s","img/Fire_Down_Target.gif","[""img/Fire_Up_Distractor.gif"",""img/Fire_Up_Distractor.gif"",""img/Fire_Up_Distractor.gif"",""img/Fire_Up_Distractor.gif"",""img/Fire_Up_Distractor.gif"",""img/Fire_Up_Distractor.gif"",""img/Fire_Up_Distractor.gif"",""img/Fire_Up_Distractor.gif"",""img/Fire_Up_Distractor.gif"",""img/Fire_Up_Distractor.gif"",""img/Fire_Up_Distractor.gif"",""img/Fire_Up_Distractor.gif""]","8","targetDown_distractorsUp"
"","","","","","html-keyboard-response","90","294841","0.0-14.0-0.0-0.38","6030050a5bdba4dd09d142f4","619531dcf66c91622fa1b861","619595b47707942196f23d91","null","","null","","","","","main_T1_ITI","","","","",""
"","","","","","visual-search-circle","91","298151","0.0-14.0-0.0-1.38","6030050a5bdba4dd09d142f4","619531dcf66c91622fa1b861","619595b47707942196f23d91","2302.800000011921","","d","true","[[508,84],[261,2],[43,144],[18,404],[205,584],[464,551],[598,328]]","true","7","main_T2_Trial","d","img/Fire_Up_Target.gif","[""img/Fire_Down_Distractor.gif"",""img/Fire_Down_Distractor.gif"",""img/Fire_Down_Distractor.gif"",""img/Fire_Down_Distractor.gif"",""img/Fire_Down_Distractor.gif"",""img/Fire_Down_Distractor.gif"",""img/Fire_Down_Distractor.gif"",""img/Fire_Down_Distractor.gif"",""img/Fire_Down_Distractor.gif"",""img/Fire_Down_Distractor.gif"",""img/Fire_Down_Distractor.gif"",""img/Fire_Down_Distractor.gif""]","7","targetUp_distractorsDown"
"","","","","","html-keyboard-response","92","306271","0.0-14.0-0.0-0.39","6030050a5bdba4dd09d142f4","619531dcf66c91622fa1b861","619595b47707942196f23d91","8119.699999988079","Wow! You've completed 40 out of 160 trials! </p> <p>  </p><p> Take a quick break, then press any key when you're ready to continue."," ","","","","","main_T1_ITI","","","","",""
"","","","","","visual-search-circle","93","309816","0.0-14.0-0.0-1.39","6030050a5bdba4dd09d142f4","619531dcf66c91622fa1b861","619595b47707942196f23d91","2535.9000000059605","","d","true","[[467,548],[588,217],[310,0],[18,197],[115,536]]","true","5","main_T2_Trial","d","img/Fire_Up_Target.gif","[""img/Fire_Down_Distractor.gif"",""img/Fire_Down_Distractor.gif"",""img/Fire_Down_Distractor.gif"",""img/Fire_Down_Distractor.gif"",""img/Fire_Down_Distractor.gif"",""img/Fire_Down_Distractor.gif"",""img/Fire_Down_Distractor.gif"",""img/Fire_Down_Distractor.gif"",""img/Fire_Down_Distractor.gif"",""img/Fire_Down_Distractor.gif"",""img/Fire_Down_Distractor.gif"",""img/Fire_Down_Distractor.gif""]","5","targetUp_distractorsDown"
"","","","","","html-keyboard-response","94","309822","0.0-14.0-0.0-0.40","6030050a5bdba4dd09d142f4","619531dcf66c91622fa1b861","619595b47707942196f23d91","null","","null","","","","","main_T1_ITI","","","","",""
"","","","","","visual-search-circle","95","318313","0.0-14.0-0.0-1.40","6030050a5bdba4dd09d142f4","619531dcf66c91622fa1b861","619595b47707942196f23d91","7468.800000011921","","d","true","[[66,488],[488,533],[533,111],[111,66]]","true","4","main_T2_Trial","d","img/Fire_Up_Target.gif","[""img/Fire_Down_Distractor.gif"",""img/Fire_Down_Distractor.gif"",""img/Fire_Down_Distractor.gif"",""img/Fire_Down_Distractor.gif"",""img/Fire_Down_Distractor.gif"",""img/Fire_Down_Distractor.gif"",""img/Fire_Down_Distractor.gif"",""img/Fire_Down_Distractor.gif"",""img/Fire_Down_Distractor.gif"",""img/Fire_Down_Distractor.gif"",""img/Fire_Down_Distractor.gif"",""img/Fire_Down_Distractor.gif""]","4","targetUp_distractorsDown"
"","","","","","html-keyboard-response","96","318320","0.0-14.0-0.0-0.41","6030050a5bdba4dd09d142f4","619531dcf66c91622fa1b861","619595b47707942196f23d91","null","","null","","","","","main_T1_ITI","","","","",""
"","","","","","visual-search-circle","97","323353","0.0-14.0-0.0-1.41","6030050a5bdba4dd09d142f4","619531dcf66c91622fa1b861","619595b47707942196f23d91","4021.300000011921","","d","true","[[597,341],[539,119],[341,2],[119,60],[2,258],[60,480],[258,597],[480,539]]","true","8","main_T2_Trial","d","img/Fire_Up_Target.gif","[""img/Fire_Down_Distractor.gif"",""img/Fire_Down_Distractor.gif"",""img/Fire_Down_Distractor.gif"",""img/Fire_Down_Distractor.gif"",""img/Fire_Down_Distractor.gif"",""img/Fire_Down_Distractor.gif"",""img/Fire_Down_Distractor.gif"",""img/Fire_Down_Distractor.gif"",""img/Fire_Down_Distractor.gif"",""img/Fire_Down_Distractor.gif"",""img/Fire_Down_Distractor.gif"",""img/Fire_Down_Distractor.gif""]","8","targetUp_distractorsDown"
"","","","","","html-keyboard-response","98","323357","0.0-14.0-0.0-0.42","6030050a5bdba4dd09d142f4","619531dcf66c91622fa1b861","619595b47707942196f23d91","null","","null","","","","","main_T1_ITI","","","","",""
"","","","","","visual-search-circle","99","326853","0.0-14.0-0.0-1.42","6030050a5bdba4dd09d142f4","619531dcf66c91622fa1b861","619595b47707942196f23d91","2489.7000000178814","","s","true","[[30,431],[234,592],[488,533],[599,298],[485,64],[231,7],[29,171]]","false","7","main_T2_Trial","s","img/Fire_Down_Target.gif","[""img/Fire_Up_Distractor.gif"",""img/Fire_Up_Distractor.gif"",""img/Fire_Up_Distractor.gif"",""img/Fire_Up_Distractor.gif"",""img/Fire_Up_Distractor.gif"",""img/Fire_Up_Distractor.gif"",""img/Fire_Up_Distractor.gif"",""img/Fire_Up_Distractor.gif"",""img/Fire_Up_Distractor.gif"",""img/Fire_Up_Distractor.gif"",""img/Fire_Up_Distractor.gif"",""img/Fire_Up_Distractor.gif""]","7","targetDown_distractorsUp"
"","","","","","html-keyboard-response","100","326861","0.0-14.0-0.0-0.43","6030050a5bdba4dd09d142f4","619531dcf66c91622fa1b861","619595b47707942196f23d91","null","","null","","","","","main_T1_ITI","","","","",""
"","","","","","visual-search-circle","101","334333","0.0-14.0-0.0-1.43","6030050a5bdba4dd09d142f4","619531dcf66c91622fa1b861","619595b47707942196f23d91","6454.899999976158","","s","false","[[192,19],[19,407],[407,580],[580,192]]","true","4","main_T2_Trial","d","img/Fire_Down_Target.gif","[""img/Fire_Up_Distractor.gif"",""img/Fire_Up_Distractor.gif"",""img/Fire_Up_Distractor.gif"",""img/Fire_Up_Distractor.gif"",""img/Fire_Up_Distractor.gif"",""img/Fire_Up_Distractor.gif"",""img/Fire_Up_Distractor.gif"",""img/Fire_Up_Distractor.gif"",""img/Fire_Up_Distractor.gif"",""img/Fire_Up_Distractor.gif"",""img/Fire_Up_Distractor.gif"",""img/Fire_Up_Distractor.gif""]","4","targetDown_distractorsUp"
"","","","","","html-keyboard-response","102","334337","0.0-14.0-0.0-0.44","6030050a5bdba4dd09d142f4","619531dcf66c91622fa1b861","619595b47707942196f23d91","null","","null","","","","","main_T1_ITI","","","","",""
"","","","","","visual-search-circle","103","338129","0.0-14.0-0.0-1.44","6030050a5bdba4dd09d142f4","619531dcf66c91622fa1b861","619595b47707942196f23d91","2778.199999988079","","s","false","[[519,95],[95,80],[80,504],[504,519]]","true","4","main_T2_Trial","d","img/Fire_Down_Target.gif","[""img/Fire_Up_Distractor.gif"",""img/Fire_Up_Distractor.gif"",""img/Fire_Up_Distractor.gif"",""img/Fire_Up_Distractor.gif"",""img/Fire_Up_Distractor.gif"",""img/Fire_Up_Distractor.gif"",""img/Fire_Up_Distractor.gif"",""img/Fire_Up_Distractor.gif"",""img/Fire_Up_Distractor.gif"",""img/Fire_Up_Distractor.gif"",""img/Fire_Up_Distractor.gif"",""img/Fire_Up_Distractor.gif""]","4","targetDown_distractorsUp"
"","","","","","html-keyboard-response","104","338131","0.0-14.0-0.0-0.45","6030050a5bdba4dd09d142f4","619531dcf66c91622fa1b861","619595b47707942196f23d91","null","","null","","","","","main_T1_ITI","","","","",""
"","","","","","visual-search-circle","105","341625","0.0-14.0-0.0-1.45","6030050a5bdba4dd09d142f4","619531dcf66c91622fa1b861","619595b47707942196f23d91","2482.5999999940395","","s","false","[[0,315],[163,567],[463,551],[599,284],[436,32],[136,48]]","true","6","main_T2_Trial","d","img/Fire_Down_Target.gif","[""img/Fire_Up_Distractor.gif"",""img/Fire_Up_Distractor.gif"",""img/Fire_Up_Distractor.gif"",""img/Fire_Up_Distractor.gif"",""img/Fire_Up_Distractor.gif"",""img/Fire_Up_Distractor.gif"",""img/Fire_Up_Distractor.gif"",""img/Fire_Up_Distractor.gif"",""img/Fire_Up_Distractor.gif"",""img/Fire_Up_Distractor.gif"",""img/Fire_Up_Distractor.gif"",""img/Fire_Up_Distractor.gif""]","6","targetDown_distractorsUp"
"","","","","","html-keyboard-response","106","341632","0.0-14.0-0.0-0.46","6030050a5bdba4dd09d142f4","619531dcf66c91622fa1b861","619595b47707942196f23d91","null","","null","","","","","main_T1_ITI","","","","",""
"","","","","","visual-search-circle","107","346478","0.0-14.0-0.0-1.46","6030050a5bdba4dd09d142f4","619531dcf66c91622fa1b861","619595b47707942196f23d91","3836.600000023842","","s","true","[[37,154],[11,382],[154,562],[382,588],[562,445],[588,217],[445,37],[217,11]]","false","8","main_T2_Trial","s","img/Fire_Up_Target.gif","[""img/Fire_Down_Distractor.gif"",""img/Fire_Down_Distractor.gif"",""img/Fire_Down_Distractor.gif"",""img/Fire_Down_Distractor.gif"",""img/Fire_Down_Distractor.gif"",""img/Fire_Down_Distractor.gif"",""img/Fire_Down_Distractor.gif"",""img/Fire_Down_Distractor.gif"",""img/Fire_Down_Distractor.gif"",""img/Fire_Down_Distractor.gif"",""img/Fire_Down_Distractor.gif"",""img/Fire_Down_Distractor.gif""]","8","targetUp_distractorsDown"
"","","","","","html-keyboard-response","108","346480","0.0-14.0-0.0-0.47","6030050a5bdba4dd09d142f4","619531dcf66c91622fa1b861","619595b47707942196f23d91","null","","null","","","","","main_T1_ITI","","","","",""
"","","","","","visual-search-circle","109","350324","0.0-14.0-0.0-1.47","6030050a5bdba4dd09d142f4","619531dcf66c91622fa1b861","619595b47707942196f23d91","2828.0999999940395","","s","true","[[284,599],[551,463],[567,163],[315,0],[48,136],[32,436]]","false","6","main_T2_Trial","s","img/Fire_Down_Target.gif","[""img/Fire_Up_Distractor.gif"",""img/Fire_Up_Distractor.gif"",""img/Fire_Up_Distractor.gif"",""img/Fire_Up_Distractor.gif"",""img/Fire_Up_Distractor.gif"",""img/Fire_Up_Distractor.gif"",""img/Fire_Up_Distractor.gif"",""img/Fire_Up_Distractor.gif"",""img/Fire_Up_Distractor.gif"",""img/Fire_Up_Distractor.gif"",""img/Fire_Up_Distractor.gif"",""img/Fire_Up_Distractor.gif""]","6","targetDown_distractorsUp"
"","","","","","html-keyboard-response","110","350326","0.0-14.0-0.0-0.48","6030050a5bdba4dd09d142f4","619531dcf66c91622fa1b861","619595b47707942196f23d91","null","","null","","","","","main_T1_ITI","","","","",""
"","","","","","visual-search-circle","111","353201","0.0-14.0-0.0-1.48","6030050a5bdba4dd09d142f4","619531dcf66c91622fa1b861","619595b47707942196f23d91","1869.7000000178814","","s","true","[[377,10],[87,87],[10,377],[222,589],[512,512],[589,222]]","false","6","main_T2_Trial","s","img/Fire_Down_Target.gif","[""img/Fire_Up_Distractor.gif"",""img/Fire_Up_Distractor.gif"",""img/Fire_Up_Distractor.gif"",""img/Fire_Up_Distractor.gif"",""img/Fire_Up_Distractor.gif"",""img/Fire_Up_Distractor.gif"",""img/Fire_Up_Distractor.gif"",""img/Fire_Up_Distractor.gif"",""img/Fire_Up_Distractor.gif"",""img/Fire_Up_Distractor.gif"",""img/Fire_Up_Distractor.gif"",""img/Fire_Up_Distractor.gif""]","6","targetDown_distractorsUp"
"","","","","","html-keyboard-response","112","353204","0.0-14.0-0.0-0.49","6030050a5bdba4dd09d142f4","619531dcf66c91622fa1b861","619595b47707942196f23d91","null","","null","","","","","main_T1_ITI","","","","",""
"","","","","","visual-search-circle","113","357679","0.0-14.0-0.0-1.49","6030050a5bdba4dd09d142f4","619531dcf66c91622fa1b861","619595b47707942196f23d91","3461.7999999821186","","s","true","[[476,57],[253,3],[57,123],[3,346],[123,542],[346,596],[542,476],[596,253]]","false","8","main_T2_Trial","s","img/Fire_Up_Target.gif","[""img/Fire_Down_Distractor.gif"",""img/Fire_Down_Distractor.gif"",""img/Fire_Down_Distractor.gif"",""img/Fire_Down_Distractor.gif"",""img/Fire_Down_Distractor.gif"",""img/Fire_Down_Distractor.gif"",""img/Fire_Down_Distractor.gif"",""img/Fire_Down_Distractor.gif"",""img/Fire_Down_Distractor.gif"",""img/Fire_Down_Distractor.gif"",""img/Fire_Down_Distractor.gif"",""img/Fire_Down_Distractor.gif""]","8","targetUp_distractorsDown"
"","","","","","html-keyboard-response","114","357685","0.0-14.0-0.0-0.50","6030050a5bdba4dd09d142f4","619531dcf66c91622fa1b861","619595b47707942196f23d91","null","","null","","","","","main_T1_ITI","","","","",""
"","","","","","visual-search-circle","115","362181","0.0-14.0-0.0-1.50","6030050a5bdba4dd09d142f4","619531dcf66c91622fa1b861","619595b47707942196f23d91","3488.0999999940395","","s","true","[[331,598],[533,488],[598,268],[488,66],[268,1],[66,111],[1,331],[111,533]]","false","8","main_T2_Trial","s","img/Fire_Down_Target.gif","[""img/Fire_Up_Distractor.gif"",""img/Fire_Up_Distractor.gif"",""img/Fire_Up_Distractor.gif"",""img/Fire_Up_Distractor.gif"",""img/Fire_Up_Distractor.gif"",""img/Fire_Up_Distractor.gif"",""img/Fire_Up_Distractor.gif"",""img/Fire_Up_Distractor.gif"",""img/Fire_Up_Distractor.gif"",""img/Fire_Up_Distractor.gif"",""img/Fire_Up_Distractor.gif"",""img/Fire_Up_Distractor.gif""]","8","targetDown_distractorsUp"
"","","","","","html-keyboard-response","116","362183","0.0-14.0-0.0-0.51","6030050a5bdba4dd09d142f4","619531dcf66c91622fa1b861","619595b47707942196f23d91","null","","null","","","","","main_T1_ITI","","","","",""
"","","","","","visual-search-circle","117","366240","0.0-14.0-0.0-1.51","6030050a5bdba4dd09d142f4","619531dcf66c91622fa1b861","619595b47707942196f23d91","3042.2000000178814","","s","true","[[87,87],[32,436],[346,596],[596,346],[436,32]]","false","5","main_T2_Trial","s","img/Fire_Up_Target.gif","[""img/Fire_Down_Distractor.gif"",""img/Fire_Down_Distractor.gif"",""img/Fire_Down_Distractor.gif"",""img/Fire_Down_Distractor.gif"",""img/Fire_Down_Distractor.gif"",""img/Fire_Down_Distractor.gif"",""img/Fire_Down_Distractor.gif"",""img/Fire_Down_Distractor.gif"",""img/Fire_Down_Distractor.gif"",""img/Fire_Down_Distractor.gif"",""img/Fire_Down_Distractor.gif"",""img/Fire_Down_Distractor.gif""]","5","targetUp_distractorsDown"
"","","","","","html-keyboard-response","118","366243","0.0-14.0-0.0-0.52","6030050a5bdba4dd09d142f4","619531dcf66c91622fa1b861","619595b47707942196f23d91","null","","null","","","","","main_T1_ITI","","","","",""
"","","","","","visual-search-circle","119","369327","0.0-14.0-0.0-1.52","6030050a5bdba4dd09d142f4","619531dcf66c91622fa1b861","619595b47707942196f23d91","2066","","s","true","[[107,529],[326,598],[529,492],[598,273],[492,70],[273,1],[70,107],[1,326]]","false","8","main_T2_Trial","s","img/Fire_Up_Target.gif","[""img/Fire_Down_Distractor.gif"",""img/Fire_Down_Distractor.gif"",""img/Fire_Down_Distractor.gif"",""img/Fire_Down_Distractor.gif"",""img/Fire_Down_Distractor.gif"",""img/Fire_Down_Distractor.gif"",""img/Fire_Down_Distractor.gif"",""img/Fire_Down_Distractor.gif"",""img/Fire_Down_Distractor.gif"",""img/Fire_Down_Distractor.gif"",""img/Fire_Down_Distractor.gif"",""img/Fire_Down_Distractor.gif""]","8","targetUp_distractorsDown"
"","","","","","html-keyboard-response","120","369338","0.0-14.0-0.0-0.53","6030050a5bdba4dd09d142f4","619531dcf66c91622fa1b861","619595b47707942196f23d91","null","","null","","","","","main_T1_ITI","","","","",""
"","","","","","visual-search-circle","121","373160","0.0-14.0-0.0-1.53","6030050a5bdba4dd09d142f4","619531dcf66c91622fa1b861","619595b47707942196f23d91","2802.2999999821186","","s","true","[[500,522],[574,177],[268,1],[6,237],[150,559]]","false","5","main_T2_Trial","s","img/Fire_Down_Target.gif","[""img/Fire_Up_Distractor.gif"",""img/Fire_Up_Distractor.gif"",""img/Fire_Up_Distractor.gif"",""img/Fire_Up_Distractor.gif"",""img/Fire_Up_Distractor.gif"",""img/Fire_Up_Distractor.gif"",""img/Fire_Up_Distractor.gif"",""img/Fire_Up_Distractor.gif"",""img/Fire_Up_Distractor.gif"",""img/Fire_Up_Distractor.gif"",""img/Fire_Up_Distractor.gif"",""img/Fire_Up_Distractor.gif""]","5","targetDown_distractorsUp"
"","","","","","html-keyboard-response","122","373163","0.0-14.0-0.0-0.54","6030050a5bdba4dd09d142f4","619531dcf66c91622fa1b861","619595b47707942196f23d91","null","","null","","","","","main_T1_ITI","","","","",""
"","","","","","visual-search-circle","123","378737","0.0-14.0-0.0-1.54","6030050a5bdba4dd09d142f4","619531dcf66c91622fa1b861","619595b47707942196f23d91","4548.399999976158","","s","true","[[571,173],[326,1],[54,127],[28,426],[273,598],[545,472]]","false","6","main_T2_Trial","s","img/Fire_Down_Target.gif","[""img/Fire_Up_Distractor.gif"",""img/Fire_Up_Distractor.gif"",""img/Fire_Up_Distractor.gif"",""img/Fire_Up_Distractor.gif"",""img/Fire_Up_Distractor.gif"",""img/Fire_Up_Distractor.gif"",""img/Fire_Up_Distractor.gif"",""img/Fire_Up_Distractor.gif"",""img/Fire_Up_Distractor.gif"",""img/Fire_Up_Distractor.gif"",""img/Fire_Up_Distractor.gif"",""img/Fire_Up_Distractor.gif""]","6","targetDown_distractorsUp"
"","","","","","html-keyboard-response","124","378745","0.0-14.0-0.0-0.55","6030050a5bdba4dd09d142f4","619531dcf66c91622fa1b861","619595b47707942196f23d91","null","","null","","","","","main_T1_ITI","","","","",""
"","","","","","visual-search-circle","125","381394","0.0-14.0-0.0-1.55","6030050a5bdba4dd09d142f4","619531dcf66c91622fa1b861","619595b47707942196f23d91","1640.6000000238419","","d","false","[[440,564],[564,159],[159,35],[35,440]]","false","4","main_T2_Trial","s","img/Fire_Down_Target.gif","[""img/Fire_Up_Distractor.gif"",""img/Fire_Up_Distractor.gif"",""img/Fire_Up_Distractor.gif"",""img/Fire_Up_Distractor.gif"",""img/Fire_Up_Distractor.gif"",""img/Fire_Up_Distractor.gif"",""img/Fire_Up_Distractor.gif"",""img/Fire_Up_Distractor.gif"",""img/Fire_Up_Distractor.gif"",""img/Fire_Up_Distractor.gif"",""img/Fire_Up_Distractor.gif"",""img/Fire_Up_Distractor.gif""]","4","targetDown_distractorsUp"
"","","","","","html-keyboard-response","126","381395","0.0-14.0-0.0-0.56","6030050a5bdba4dd09d142f4","619531dcf66c91622fa1b861","619595b47707942196f23d91","null","","null","","","","","main_T1_ITI","","","","",""
"","","","","","visual-search-circle","127","388468","0.0-14.0-0.0-1.56","6030050a5bdba4dd09d142f4","619531dcf66c91622fa1b861","619595b47707942196f23d91","6057.399999976158","","d","true","[[10,222],[40,450],[222,589],[450,559],[589,377],[559,150],[377,10],[150,40]]","true","8","main_T2_Trial","d","img/Fire_Down_Target.gif","[""img/Fire_Up_Distractor.gif"",""img/Fire_Up_Distractor.gif"",""img/Fire_Up_Distractor.gif"",""img/Fire_Up_Distractor.gif"",""img/Fire_Up_Distractor.gif"",""img/Fire_Up_Distractor.gif"",""img/Fire_Up_Distractor.gif"",""img/Fire_Up_Distractor.gif"",""img/Fire_Up_Distractor.gif"",""img/Fire_Up_Distractor.gif"",""img/Fire_Up_Distractor.gif"",""img/Fire_Up_Distractor.gif""]","8","targetDown_distractorsUp"
"","","","","","html-keyboard-response","128","388469","0.0-14.0-0.0-0.57","6030050a5bdba4dd09d142f4","619531dcf66c91622fa1b861","619595b47707942196f23d91","null","","null","","","","","main_T1_ITI","","","","",""
"","","","","","visual-search-circle","129","393289","0.0-14.0-0.0-1.57","6030050a5bdba4dd09d142f4","619531dcf66c91622fa1b861","619595b47707942196f23d91","3809.4000000059605","","d","true","[[454,557],[592,232],[326,1],[23,182],[103,526]]","true","5","main_T2_Trial","d","img/Fire_Down_Target.gif","[""img/Fire_Up_Distractor.gif"",""img/Fire_Up_Distractor.gif"",""img/Fire_Up_Distractor.gif"",""img/Fire_Up_Distractor.gif"",""img/Fire_Up_Distractor.gif"",""img/Fire_Up_Distractor.gif"",""img/Fire_Up_Distractor.gif"",""img/Fire_Up_Distractor.gif"",""img/Fire_Up_Distractor.gif"",""img/Fire_Up_Distractor.gif"",""img/Fire_Up_Distractor.gif"",""img/Fire_Up_Distractor.gif""]","5","targetDown_distractorsUp"
"","","","","","html-keyboard-response","130","393303","0.0-14.0-0.0-0.58","6030050a5bdba4dd09d142f4","619531dcf66c91622fa1b861","619595b47707942196f23d91","null","","null","","","","","main_T1_ITI","","","","",""
"","","","","","visual-search-circle","131","396331","0.0-14.0-0.0-1.58","6030050a5bdba4dd09d142f4","619531dcf66c91622fa1b861","619595b47707942196f23d91","2021.7000000178814","","s","true","[[341,597],[578,412],[536,115],[258,2],[21,187],[63,484]]","false","6","main_T2_Trial","s","img/Fire_Up_Target.gif","[""img/Fire_Down_Distractor.gif"",""img/Fire_Down_Distractor.gif"",""img/Fire_Down_Distractor.gif"",""img/Fire_Down_Distractor.gif"",""img/Fire_Down_Distractor.gif"",""img/Fire_Down_Distractor.gif"",""img/Fire_Down_Distractor.gif"",""img/Fire_Down_Distractor.gif"",""img/Fire_Down_Distractor.gif"",""img/Fire_Down_Distractor.gif"",""img/Fire_Down_Distractor.gif"",""img/Fire_Down_Distractor.gif""]","6","targetUp_distractorsDown"
"","","","","","html-keyboard-response","132","419102","0.0-14.0-0.0-0.59","6030050a5bdba4dd09d142f4","619531dcf66c91622fa1b861","619595b47707942196f23d91","22770.40000000596","Wow! You've completed 60 out of 160 trials! </p> <p>  </p><p> Take a quick break, then press any key when you're ready to continue."," ","","","","","main_T1_ITI","","","","",""
"","","","","","visual-search-circle","133","421754","0.0-14.0-0.0-1.59","6030050a5bdba4dd09d142f4","619531dcf66c91622fa1b861","619595b47707942196f23d91","1634.4000000059605","","d","false","[[593,362],[551,136],[362,6],[136,48],[6,237],[48,463],[237,593],[463,551]]","false","8","main_T2_Trial","s","img/Fire_Up_Target.gif","[""img/Fire_Down_Distractor.gif"",""img/Fire_Down_Distractor.gif"",""img/Fire_Down_Distractor.gif"",""img/Fire_Down_Distractor.gif"",""img/Fire_Down_Distractor.gif"",""img/Fire_Down_Distractor.gif"",""img/Fire_Down_Distractor.gif"",""img/Fire_Down_Distractor.gif"",""img/Fire_Down_Distractor.gif"",""img/Fire_Down_Distractor.gif"",""img/Fire_Down_Distractor.gif"",""img/Fire_Down_Distractor.gif""]","8","targetUp_distractorsDown"
"","","","","","html-keyboard-response","134","421757","0.0-14.0-0.0-0.60","6030050a5bdba4dd09d142f4","619531dcf66c91622fa1b861","619595b47707942196f23d91","null","","null","","","","","main_T1_ITI","","","","",""
"","","","","","visual-search-circle","135","430361","0.0-14.0-0.0-1.60","6030050a5bdba4dd09d142f4","619531dcf66c91622fa1b861","619595b47707942196f23d91","7596.800000011921","","s","false","[[591,227],[424,27],[164,32],[6,239],[69,491],[305,599],[538,482]]","true","7","main_T2_Trial","d","img/Fire_Up_Target.gif","[""img/Fire_Down_Distractor.gif"",""img/Fire_Down_Distractor.gif"",""img/Fire_Down_Distractor.gif"",""img/Fire_Down_Distractor.gif"",""img/Fire_Down_Distractor.gif"",""img/Fire_Down_Distractor.gif"",""img/Fire_Down_Distractor.gif"",""img/Fire_Down_Distractor.gif"",""img/Fire_Down_Distractor.gif"",""img/Fire_Down_Distractor.gif"",""img/Fire_Down_Distractor.gif"",""img/Fire_Down_Distractor.gif""]","7","targetUp_distractorsDown"
"","","","","","html-keyboard-response","136","430365","0.0-14.0-0.0-0.61","6030050a5bdba4dd09d142f4","619531dcf66c91622fa1b861","619595b47707942196f23d91","null","","null","","","","","main_T1_ITI","","","","",""
"","","","","","visual-search-circle","137","433150","0.0-14.0-0.0-1.61","6030050a5bdba4dd09d142f4","619531dcf66c91622fa1b861","619595b47707942196f23d91","1780.199999988079","","s","true","[[13,212],[212,586],[586,387],[387,13]]","false","4","main_T2_Trial","s","img/Fire_Up_Target.gif","[""img/Fire_Down_Distractor.gif"",""img/Fire_Down_Distractor.gif"",""img/Fire_Down_Distractor.gif"",""img/Fire_Down_Distractor.gif"",""img/Fire_Down_Distractor.gif"",""img/Fire_Down_Distractor.gif"",""img/Fire_Down_Distractor.gif"",""img/Fire_Down_Distractor.gif"",""img/Fire_Down_Distractor.gif"",""img/Fire_Down_Distractor.gif"",""img/Fire_Down_Distractor.gif"",""img/Fire_Down_Distractor.gif""]","4","targetUp_distractorsDown"
"","","","","","html-keyboard-response","138","433152","0.0-14.0-0.0-0.62","6030050a5bdba4dd09d142f4","619531dcf66c91622fa1b861","619595b47707942196f23d91","null","","null","","","","","main_T1_ITI","","","","",""
"","","","","","visual-search-circle","139","436444","0.0-14.0-0.0-1.62","6030050a5bdba4dd09d142f4","619531dcf66c91622fa1b861","619595b47707942196f23d91","2287.7999999821186","","s","false","[[253,3],[3,346],[346,596],[596,253]]","true","4","main_T2_Trial","d","img/Fire_Down_Target.gif","[""img/Fire_Up_Distractor.gif"",""img/Fire_Up_Distractor.gif"",""img/Fire_Up_Distractor.gif"",""img/Fire_Up_Distractor.gif"",""img/Fire_Up_Distractor.gif"",""img/Fire_Up_Distractor.gif"",""img/Fire_Up_Distractor.gif"",""img/Fire_Up_Distractor.gif"",""img/Fire_Up_Distractor.gif"",""img/Fire_Up_Distractor.gif"",""img/Fire_Up_Distractor.gif"",""img/Fire_Up_Distractor.gif""]","4","targetDown_distractorsUp"
"","","","","","html-keyboard-response","140","436450","0.0-14.0-0.0-0.63","6030050a5bdba4dd09d142f4","619531dcf66c91622fa1b861","619595b47707942196f23d91","null","","null","","","","","main_T1_ITI","","","","",""
"","","","","","visual-search-circle","141","439290","0.0-14.0-0.0-1.63","6030050a5bdba4dd09d142f4","619531dcf66c91622fa1b861","619595b47707942196f23d91","1833.800000011921","","s","false","[[436,32],[136,48],[0,315],[163,567],[463,551],[599,284]]","true","6","main_T2_Trial","d","img/Fire_Up_Target.gif","[""img/Fire_Down_Distractor.gif"",""img/Fire_Down_Distractor.gif"",""img/Fire_Down_Distractor.gif"",""img/Fire_Down_Distractor.gif"",""img/Fire_Down_Distractor.gif"",""img/Fire_Down_Distractor.gif"",""img/Fire_Down_Distractor.gif"",""img/Fire_Down_Distractor.gif"",""img/Fire_Down_Distractor.gif"",""img/Fire_Down_Distractor.gif"",""img/Fire_Down_Distractor.gif"",""img/Fire_Down_Distractor.gif""]","6","targetUp_distractorsDown"
"","","","","","html-keyboard-response","142","439291","0.0-14.0-0.0-0.64","6030050a5bdba4dd09d142f4","619531dcf66c91622fa1b861","619595b47707942196f23d91","null","","null","","","","","main_T1_ITI","","","","",""
"","","","","","visual-search-circle","143","442378","0.0-14.0-0.0-1.64","6030050a5bdba4dd09d142f4","619531dcf66c91622fa1b861","619595b47707942196f23d91","2082.800000011921","","s","true","[[66,488],[488,533],[533,111],[111,66]]","false","4","main_T2_Trial","s","img/Fire_Down_Target.gif","[""img/Fire_Up_Distractor.gif"",""img/Fire_Up_Distractor.gif"",""img/Fire_Up_Distractor.gif"",""img/Fire_Up_Distractor.gif"",""img/Fire_Up_Distractor.gif"",""img/Fire_Up_Distractor.gif"",""img/Fire_Up_Distractor.gif"",""img/Fire_Up_Distractor.gif"",""img/Fire_Up_Distractor.gif"",""img/Fire_Up_Distractor.gif"",""img/Fire_Up_Distractor.gif"",""img/Fire_Up_Distractor.gif""]","4","targetDown_distractorsUp"
"","","","","","html-keyboard-response","144","442380","0.0-14.0-0.0-0.65","6030050a5bdba4dd09d142f4","619531dcf66c91622fa1b861","619595b47707942196f23d91","null","","null","","","","","main_T1_ITI","","","","",""
"","","","","","visual-search-circle","145","445643","0.0-14.0-0.0-1.65","6030050a5bdba4dd09d142f4","619531dcf66c91622fa1b861","619595b47707942196f23d91","2256.4000000059605","","s","true","[[2,341],[147,558],[406,580],[585,391],[549,133],[325,1],[82,93]]","false","7","main_T2_Trial","s","img/Fire_Down_Target.gif","[""img/Fire_Up_Distractor.gif"",""img/Fire_Up_Distractor.gif"",""img/Fire_Up_Distractor.gif"",""img/Fire_Up_Distractor.gif"",""img/Fire_Up_Distractor.gif"",""img/Fire_Up_Distractor.gif"",""img/Fire_Up_Distractor.gif"",""img/Fire_Up_Distractor.gif"",""img/Fire_Up_Distractor.gif"",""img/Fire_Up_Distractor.gif"",""img/Fire_Up_Distractor.gif"",""img/Fire_Up_Distractor.gif""]","7","targetDown_distractorsUp"
"","","","","","html-keyboard-response","146","445659","0.0-14.0-0.0-0.66","6030050a5bdba4dd09d142f4","619531dcf66c91622fa1b861","619595b47707942196f23d91","null","","null","","","","","main_T1_ITI","","","","",""
"","","","","","visual-search-circle","147","449064","0.0-14.0-0.0-1.66","6030050a5bdba4dd09d142f4","619531dcf66c91622fa1b861","619595b47707942196f23d91","2394.5","","s","true","[[0,294],[294,599],[599,305],[305,0]]","false","4","main_T2_Trial","s","img/Fire_Down_Target.gif","[""img/Fire_Up_Distractor.gif"",""img/Fire_Up_Distractor.gif"",""img/Fire_Up_Distractor.gif"",""img/Fire_Up_Distractor.gif"",""img/Fire_Up_Distractor.gif"",""img/Fire_Up_Distractor.gif"",""img/Fire_Up_Distractor.gif"",""img/Fire_Up_Distractor.gif"",""img/Fire_Up_Distractor.gif"",""img/Fire_Up_Distractor.gif"",""img/Fire_Up_Distractor.gif"",""img/Fire_Up_Distractor.gif""]","4","targetDown_distractorsUp"
"","","","","","html-keyboard-response","148","449067","0.0-14.0-0.0-0.67","6030050a5bdba4dd09d142f4","619531dcf66c91622fa1b861","619595b47707942196f23d91","null","","null","","","","","main_T1_ITI","","","","",""
"","","","","","visual-search-circle","149","456642","0.0-14.0-0.0-1.67","6030050a5bdba4dd09d142f4","619531dcf66c91622fa1b861","619595b47707942196f23d91","6554.5","","d","true","[[77,99],[0,315],[99,522],[315,599],[522,500],[599,284],[500,77],[284,0]]","true","8","main_T2_Trial","d","img/Fire_Down_Target.gif","[""img/Fire_Up_Distractor.gif"",""img/Fire_Up_Distractor.gif"",""img/Fire_Up_Distractor.gif"",""img/Fire_Up_Distractor.gif"",""img/Fire_Up_Distractor.gif"",""img/Fire_Up_Distractor.gif"",""img/Fire_Up_Distractor.gif"",""img/Fire_Up_Distractor.gif"",""img/Fire_Up_Distractor.gif"",""img/Fire_Up_Distractor.gif"",""img/Fire_Up_Distractor.gif"",""img/Fire_Up_Distractor.gif""]","8","targetDown_distractorsUp"
"","","","","","html-keyboard-response","150","456652","0.0-14.0-0.0-0.68","6030050a5bdba4dd09d142f4","619531dcf66c91622fa1b861","619595b47707942196f23d91","null","","null","","","","","main_T1_ITI","","","","",""
"","","","","","visual-search-circle","151","462685","0.0-14.0-0.0-1.68","6030050a5bdba4dd09d142f4","619531dcf66c91622fa1b861","619595b47707942196f23d91","5019.699999988079","","d","true","[[127,545],[480,539],[583,202],[294,0],[13,212]]","true","5","main_T2_Trial","d","img/Fire_Down_Target.gif","[""img/Fire_Up_Distractor.gif"",""img/Fire_Up_Distractor.gif"",""img/Fire_Up_Distractor.gif"",""img/Fire_Up_Distractor.gif"",""img/Fire_Up_Distractor.gif"",""img/Fire_Up_Distractor.gif"",""img/Fire_Up_Distractor.gif"",""img/Fire_Up_Distractor.gif"",""img/Fire_Up_Distractor.gif"",""img/Fire_Up_Distractor.gif"",""img/Fire_Up_Distractor.gif"",""img/Fire_Up_Distractor.gif""]","5","targetDown_distractorsUp"
"","","","","","html-keyboard-response","152","462687","0.0-14.0-0.0-0.69","6030050a5bdba4dd09d142f4","619531dcf66c91622fa1b861","619595b47707942196f23d91","null","","null","","","","","main_T1_ITI","","","","",""
"","","","","","visual-search-circle","153","467644","0.0-14.0-0.0-1.69","6030050a5bdba4dd09d142f4","619531dcf66c91622fa1b861","619595b47707942196f23d91","3949.0999999940395","","s","false","[[599,305],[305,0],[0,294],[294,599]]","true","4","main_T2_Trial","d","img/Fire_Up_Target.gif","[""img/Fire_Down_Distractor.gif"",""img/Fire_Down_Distractor.gif"",""img/Fire_Down_Distractor.gif"",""img/Fire_Down_Distractor.gif"",""img/Fire_Down_Distractor.gif"",""img/Fire_Down_Distractor.gif"",""img/Fire_Down_Distractor.gif"",""img/Fire_Down_Distractor.gif"",""img/Fire_Down_Distractor.gif"",""img/Fire_Down_Distractor.gif"",""img/Fire_Down_Distractor.gif"",""img/Fire_Down_Distractor.gif""]","4","targetUp_distractorsDown"
"","","","","","html-keyboard-response","154","467653","0.0-14.0-0.0-0.70","6030050a5bdba4dd09d142f4","619531dcf66c91622fa1b861","619595b47707942196f23d91","null","","null","","","","","main_T1_ITI","","","","",""
"","","","","","visual-search-circle","155","472125","0.0-14.0-0.0-1.70","6030050a5bdba4dd09d142f4","619531dcf66c91622fa1b861","619595b47707942196f23d91","3460.7000000178814","","s","false","[[268,1],[6,237],[149,559],[500,522],[574,177]]","true","5","main_T2_Trial","d","img/Fire_Up_Target.gif","[""img/Fire_Down_Distractor.gif"",""img/Fire_Down_Distractor.gif"",""img/Fire_Down_Distractor.gif"",""img/Fire_Down_Distractor.gif"",""img/Fire_Down_Distractor.gif"",""img/Fire_Down_Distractor.gif"",""img/Fire_Down_Distractor.gif"",""img/Fire_Down_Distractor.gif"",""img/Fire_Down_Distractor.gif"",""img/Fire_Down_Distractor.gif"",""img/Fire_Down_Distractor.gif"",""img/Fire_Down_Distractor.gif""]","5","targetUp_distractorsDown"
"","","","","","html-keyboard-response","156","472132","0.0-14.0-0.0-0.71","6030050a5bdba4dd09d142f4","619531dcf66c91622fa1b861","619595b47707942196f23d91","null","","null","","","","","main_T1_ITI","","","","",""
"","","","","","visual-search-circle","157","475434","0.0-14.0-0.0-1.71","6030050a5bdba4dd09d142f4","619531dcf66c91622fa1b861","619595b47707942196f23d91","2282","","s","true","[[91,515],[440,564],[595,247],[341,2],[30,168]]","false","5","main_T2_Trial","s","img/Fire_Down_Target.gif","[""img/Fire_Up_Distractor.gif"",""img/Fire_Up_Distractor.gif"",""img/Fire_Up_Distractor.gif"",""img/Fire_Up_Distractor.gif"",""img/Fire_Up_Distractor.gif"",""img/Fire_Up_Distractor.gif"",""img/Fire_Up_Distractor.gif"",""img/Fire_Up_Distractor.gif"",""img/Fire_Up_Distractor.gif"",""img/Fire_Up_Distractor.gif"",""img/Fire_Up_Distractor.gif"",""img/Fire_Up_Distractor.gif""]","5","targetDown_distractorsUp"
"","","","","","html-keyboard-response","158","475447","0.0-14.0-0.0-0.72","6030050a5bdba4dd09d142f4","619531dcf66c91622fa1b861","619595b47707942196f23d91","null","","null","","","","","main_T1_ITI","","","","",""
"","","","","","visual-search-circle","159","479235","0.0-14.0-0.0-1.72","6030050a5bdba4dd09d142f4","619531dcf66c91622fa1b861","619595b47707942196f23d91","2779.0999999940395","","s","false","[[484,536],[597,258],[412,21],[115,63],[2,341],[187,578]]","true","6","main_T2_Trial","d","img/Fire_Up_Target.gif","[""img/Fire_Down_Distractor.gif"",""img/Fire_Down_Distractor.gif"",""img/Fire_Down_Distractor.gif"",""img/Fire_Down_Distractor.gif"",""img/Fire_Down_Distractor.gif"",""img/Fire_Down_Distractor.gif"",""img/Fire_Down_Distractor.gif"",""img/Fire_Down_Distractor.gif"",""img/Fire_Down_Distractor.gif"",""img/Fire_Down_Distractor.gif"",""img/Fire_Down_Distractor.gif"",""img/Fire_Down_Distractor.gif""]","6","targetUp_distractorsDown"
"","","","","","html-keyboard-response","160","479248","0.0-14.0-0.0-0.73","6030050a5bdba4dd09d142f4","619531dcf66c91622fa1b861","619595b47707942196f23d91","null","","null","","","","","main_T1_ITI","","","","",""
"","","","","","visual-search-circle","161","483999","0.0-14.0-0.0-1.73","6030050a5bdba4dd09d142f4","619531dcf66c91622fa1b861","619595b47707942196f23d91","3732.9000000059605","","s","false","[[472,545],[598,273],[426,28],[127,54],[1,326],[173,571]]","true","6","main_T2_Trial","d","img/Fire_Up_Target.gif","[""img/Fire_Down_Distractor.gif"",""img/Fire_Down_Distractor.gif"",""img/Fire_Down_Distractor.gif"",""img/Fire_Down_Distractor.gif"",""img/Fire_Down_Distractor.gif"",""img/Fire_Down_Distractor.gif"",""img/Fire_Down_Distractor.gif"",""img/Fire_Down_Distractor.gif"",""img/Fire_Down_Distractor.gif"",""img/Fire_Down_Distractor.gif"",""img/Fire_Down_Distractor.gif"",""img/Fire_Down_Distractor.gif""]","6","targetUp_distractorsDown"
"","","","","","html-keyboard-response","162","484001","0.0-14.0-0.0-0.74","6030050a5bdba4dd09d142f4","619531dcf66c91622fa1b861","619595b47707942196f23d91","null","","null","","","","","main_T1_ITI","","","","",""
"","","","","","visual-search-circle","163","487516","0.0-14.0-0.0-1.74","6030050a5bdba4dd09d142f4","619531dcf66c91622fa1b861","619595b47707942196f23d91","2508.199999988079","","s","true","[[23,182],[36,442],[247,595],[497,525],[599,285],[475,56],[219,11]]","false","7","main_T2_Trial","s","img/Fire_Down_Target.gif","[""img/Fire_Up_Distractor.gif"",""img/Fire_Up_Distractor.gif"",""img/Fire_Up_Distractor.gif"",""img/Fire_Up_Distractor.gif"",""img/Fire_Up_Distractor.gif"",""img/Fire_Up_Distractor.gif"",""img/Fire_Up_Distractor.gif"",""img/Fire_Up_Distractor.gif"",""img/Fire_Up_Distractor.gif"",""img/Fire_Up_Distractor.gif"",""img/Fire_Up_Distractor.gif"",""img/Fire_Up_Distractor.gif""]","7","targetDown_distractorsUp"
"","","","","","html-keyboard-response","164","487528","0.0-14.0-0.0-0.75","6030050a5bdba4dd09d142f4","619531dcf66c91622fa1b861","619595b47707942196f23d91","null","","null","","","","","main_T1_ITI","","","","",""
"","","","","","visual-search-circle","165","490172","0.0-14.0-0.0-1.75","6030050a5bdba4dd09d142f4","619531dcf66c91622fa1b861","619595b47707942196f23d91","1640.9000000059605","","s","false","[[70,492],[492,529],[529,107],[107,70]]","true","4","main_T2_Trial","d","img/Fire_Down_Target.gif","[""img/Fire_Up_Distractor.gif"",""img/Fire_Up_Distractor.gif"",""img/Fire_Up_Distractor.gif"",""img/Fire_Up_Distractor.gif"",""img/Fire_Up_Distractor.gif"",""img/Fire_Up_Distractor.gif"",""img/Fire_Up_Distractor.gif"",""img/Fire_Up_Distractor.gif"",""img/Fire_Up_Distractor.gif"",""img/Fire_Up_Distractor.gif"",""img/Fire_Up_Distractor.gif"",""img/Fire_Up_Distractor.gif""]","4","targetDown_distractorsUp"
"","","","","","html-keyboard-response","166","490180","0.0-14.0-0.0-0.76","6030050a5bdba4dd09d142f4","619531dcf66c91622fa1b861","619595b47707942196f23d91","null","","null","","","","","main_T1_ITI","","","","",""
"","","","","","visual-search-circle","167","493019","0.0-14.0-0.0-1.76","6030050a5bdba4dd09d142f4","619531dcf66c91622fa1b861","619595b47707942196f23d91","1825.2000000178814","","s","true","[[111,66],[3,346],[192,580],[488,533],[596,253],[407,19]]","false","6","main_T2_Trial","s","img/Fire_Up_Target.gif","[""img/Fire_Down_Distractor.gif"",""img/Fire_Down_Distractor.gif"",""img/Fire_Down_Distractor.gif"",""img/Fire_Down_Distractor.gif"",""img/Fire_Down_Distractor.gif"",""img/Fire_Down_Distractor.gif"",""img/Fire_Down_Distractor.gif"",""img/Fire_Down_Distractor.gif"",""img/Fire_Down_Distractor.gif"",""img/Fire_Down_Distractor.gif"",""img/Fire_Down_Distractor.gif"",""img/Fire_Down_Distractor.gif""]","6","targetUp_distractorsDown"
"","","","","","html-keyboard-response","168","493032","0.0-14.0-0.0-0.77","6030050a5bdba4dd09d142f4","619531dcf66c91622fa1b861","619595b47707942196f23d91","null","","null","","","","","main_T1_ITI","","","","",""
"","","","","","visual-search-circle","169","495370","0.0-14.0-0.0-1.77","6030050a5bdba4dd09d142f4","619531dcf66c91622fa1b861","619595b47707942196f23d91","1327.7999999821186","","s","true","[[35,159],[159,564],[564,440],[440,35]]","false","4","main_T2_Trial","s","img/Fire_Up_Target.gif","[""img/Fire_Down_Distractor.gif"",""img/Fire_Down_Distractor.gif"",""img/Fire_Down_Distractor.gif"",""img/Fire_Down_Distractor.gif"",""img/Fire_Down_Distractor.gif"",""img/Fire_Down_Distractor.gif"",""img/Fire_Down_Distractor.gif"",""img/Fire_Down_Distractor.gif"",""img/Fire_Down_Distractor.gif"",""img/Fire_Down_Distractor.gif"",""img/Fire_Down_Distractor.gif"",""img/Fire_Down_Distractor.gif""]","4","targetUp_distractorsDown"
"","","","","","html-keyboard-response","170","495378","0.0-14.0-0.0-0.78","6030050a5bdba4dd09d142f4","619531dcf66c91622fa1b861","619595b47707942196f23d91","null","","null","","","","","main_T1_ITI","","","","",""
"","","","","","visual-search-circle","171","498438","0.0-14.0-0.0-1.78","6030050a5bdba4dd09d142f4","619531dcf66c91622fa1b861","619595b47707942196f23d91","2042.7999999821186","","s","true","[[28,426],[197,581],[426,571],[581,402],[571,173],[402,18],[173,28],[18,197]]","false","8","main_T2_Trial","s","img/Fire_Up_Target.gif","[""img/Fire_Down_Distractor.gif"",""img/Fire_Down_Distractor.gif"",""img/Fire_Down_Distractor.gif"",""img/Fire_Down_Distractor.gif"",""img/Fire_Down_Distractor.gif"",""img/Fire_Down_Distractor.gif"",""img/Fire_Down_Distractor.gif"",""img/Fire_Down_Distractor.gif"",""img/Fire_Down_Distractor.gif"",""img/Fire_Down_Distractor.gif"",""img/Fire_Down_Distractor.gif"",""img/Fire_Down_Distractor.gif""]","8","targetUp_distractorsDown"
"","","","","","html-keyboard-response","172","501790","0.0-14.0-0.0-0.79","6030050a5bdba4dd09d142f4","619531dcf66c91622fa1b861","619595b47707942196f23d91","3350.9000000059605","Wow! You've completed 80 out of 160 trials! </p> <p>  </p><p> Take a quick break, then press any key when you're ready to continue."," ","","","","","main_T1_ITI","","","","",""
"","","","","","visual-search-circle","173","505107","0.0-14.0-0.0-1.79","6030050a5bdba4dd09d142f4","619531dcf66c91622fa1b861","619595b47707942196f23d91","2299.100000023842","","s","true","[[268,598],[574,422],[500,77],[150,40],[6,362]]","false","5","main_T2_Trial","s","img/Fire_Up_Target.gif","[""img/Fire_Down_Distractor.gif"",""img/Fire_Down_Distractor.gif"",""img/Fire_Down_Distractor.gif"",""img/Fire_Down_Distractor.gif"",""img/Fire_Down_Distractor.gif"",""img/Fire_Down_Distractor.gif"",""img/Fire_Down_Distractor.gif"",""img/Fire_Down_Distractor.gif"",""img/Fire_Down_Distractor.gif"",""img/Fire_Down_Distractor.gif"",""img/Fire_Down_Distractor.gif"",""img/Fire_Down_Distractor.gif""]","5","targetUp_distractorsDown"
"","","","","","html-keyboard-response","174","505109","0.0-14.0-0.0-0.80","6030050a5bdba4dd09d142f4","619531dcf66c91622fa1b861","619595b47707942196f23d91","null","","null","","","","","main_T1_ITI","","","","",""
"","","","","","visual-search-circle","175","509354","0.0-14.0-0.0-1.80","6030050a5bdba4dd09d142f4","619531dcf66c91622fa1b861","619595b47707942196f23d91","3239.800000011921","","s","false","[[103,526],[454,557],[592,232],[326,1],[23,182]]","true","5","main_T2_Trial","d","img/Fire_Down_Target.gif","[""img/Fire_Up_Distractor.gif"",""img/Fire_Up_Distractor.gif"",""img/Fire_Up_Distractor.gif"",""img/Fire_Up_Distractor.gif"",""img/Fire_Up_Distractor.gif"",""img/Fire_Up_Distractor.gif"",""img/Fire_Up_Distractor.gif"",""img/Fire_Up_Distractor.gif"",""img/Fire_Up_Distractor.gif"",""img/Fire_Up_Distractor.gif"",""img/Fire_Up_Distractor.gif"",""img/Fire_Up_Distractor.gif""]","5","targetDown_distractorsUp"
"","","","","","html-keyboard-response","176","509368","0.0-14.0-0.0-0.81","6030050a5bdba4dd09d142f4","619531dcf66c91622fa1b861","619595b47707942196f23d91","null","","null","","","","","main_T1_ITI","","","","",""
"","","","","","visual-search-circle","177","513519","0.0-14.0-0.0-1.81","6030050a5bdba4dd09d142f4","619531dcf66c91622fa1b861","619595b47707942196f23d91","3130.4000000059605","","s","false","[[111,533],[364,592],[569,432],[571,171],[368,8],[114,64],[0,297]]","true","7","main_T2_Trial","d","img/Fire_Up_Target.gif","[""img/Fire_Down_Distractor.gif"",""img/Fire_Down_Distractor.gif"",""img/Fire_Down_Distractor.gif"",""img/Fire_Down_Distractor.gif"",""img/Fire_Down_Distractor.gif"",""img/Fire_Down_Distractor.gif"",""img/Fire_Down_Distractor.gif"",""img/Fire_Down_Distractor.gif"",""img/Fire_Down_Distractor.gif"",""img/Fire_Down_Distractor.gif"",""img/Fire_Down_Distractor.gif"",""img/Fire_Down_Distractor.gif""]","7","targetUp_distractorsDown"
"","","","","","html-keyboard-response","178","513523","0.0-14.0-0.0-0.82","6030050a5bdba4dd09d142f4","619531dcf66c91622fa1b861","619595b47707942196f23d91","null","","null","","","","","main_T1_ITI","","","","",""
"","","","","","visual-search-circle","179","516537","0.0-14.0-0.0-1.82","6030050a5bdba4dd09d142f4","619531dcf66c91622fa1b861","619595b47707942196f23d91","2006.800000011921","","s","true","[[300,0],[40,150],[40,450],[299,600],[559,450],[559,150]]","false","6","main_T2_Trial","s","img/Fire_Down_Target.gif","[""img/Fire_Up_Distractor.gif"",""img/Fire_Up_Distractor.gif"",""img/Fire_Up_Distractor.gif"",""img/Fire_Up_Distractor.gif"",""img/Fire_Up_Distractor.gif"",""img/Fire_Up_Distractor.gif"",""img/Fire_Up_Distractor.gif"",""img/Fire_Up_Distractor.gif"",""img/Fire_Up_Distractor.gif"",""img/Fire_Up_Distractor.gif"",""img/Fire_Up_Distractor.gif"",""img/Fire_Up_Distractor.gif""]","6","targetDown_distractorsUp"
"","","","","","html-keyboard-response","180","516540","0.0-14.0-0.0-0.83","6030050a5bdba4dd09d142f4","619531dcf66c91622fa1b861","619595b47707942196f23d91","null","","null","","","","","main_T1_ITI","","","","",""
"","","","","","visual-search-circle","181","519034","0.0-14.0-0.0-1.83","6030050a5bdba4dd09d142f4","619531dcf66c91622fa1b861","619595b47707942196f23d91","1481.9000000059605","","s","false","[[557,454],[526,103],[182,23],[1,326],[232,592]]","true","5","main_T2_Trial","d","img/Fire_Down_Target.gif","[""img/Fire_Up_Distractor.gif"",""img/Fire_Up_Distractor.gif"",""img/Fire_Up_Distractor.gif"",""img/Fire_Up_Distractor.gif"",""img/Fire_Up_Distractor.gif"",""img/Fire_Up_Distractor.gif"",""img/Fire_Up_Distractor.gif"",""img/Fire_Up_Distractor.gif"",""img/Fire_Up_Distractor.gif"",""img/Fire_Up_Distractor.gif"",""img/Fire_Up_Distractor.gif"",""img/Fire_Up_Distractor.gif""]","5","targetDown_distractorsUp"
"","","","","","html-keyboard-response","182","519039","0.0-14.0-0.0-0.84","6030050a5bdba4dd09d142f4","619531dcf66c91622fa1b861","619595b47707942196f23d91","null","","null","","","","","main_T1_ITI","","","","",""
"","","","","","visual-search-circle","183","521507","0.0-14.0-0.0-1.84","6030050a5bdba4dd09d142f4","619531dcf66c91622fa1b861","619595b47707942196f23d91","1458.300000011921","","s","true","[[18,197],[115,536],[467,548],[588,217],[310,0]]","false","5","main_T2_Trial","s","img/Fire_Down_Target.gif","[""img/Fire_Up_Distractor.gif"",""img/Fire_Up_Distractor.gif"",""img/Fire_Up_Distractor.gif"",""img/Fire_Up_Distractor.gif"",""img/Fire_Up_Distractor.gif"",""img/Fire_Up_Distractor.gif"",""img/Fire_Up_Distractor.gif"",""img/Fire_Up_Distractor.gif"",""img/Fire_Up_Distractor.gif"",""img/Fire_Up_Distractor.gif"",""img/Fire_Up_Distractor.gif"",""img/Fire_Up_Distractor.gif""]","5","targetDown_distractorsUp"
"","","","","","html-keyboard-response","184","521515","0.0-14.0-0.0-0.85","6030050a5bdba4dd09d142f4","619531dcf66c91622fa1b861","619595b47707942196f23d91","null","","null","","","","","main_T1_ITI","","","","",""
"","","","","","visual-search-circle","185","523814","0.0-14.0-0.0-1.85","6030050a5bdba4dd09d142f4","619531dcf66c91622fa1b861","619595b47707942196f23d91","1282.199999988079","","s","false","[[508,84],[261,2],[43,144],[18,404],[205,584],[464,551],[598,328]]","true","7","main_T2_Trial","d","img/Fire_Down_Target.gif","[""img/Fire_Up_Distractor.gif"",""img/Fire_Up_Distractor.gif"",""img/Fire_Up_Distractor.gif"",""img/Fire_Up_Distractor.gif"",""img/Fire_Up_Distractor.gif"",""img/Fire_Up_Distractor.gif"",""img/Fire_Up_Distractor.gif"",""img/Fire_Up_Distractor.gif"",""img/Fire_Up_Distractor.gif"",""img/Fire_Up_Distractor.gif"",""img/Fire_Up_Distractor.gif"",""img/Fire_Up_Distractor.gif""]","7","targetDown_distractorsUp"
"","","","","","html-keyboard-response","186","523826","0.0-14.0-0.0-0.86","6030050a5bdba4dd09d142f4","619531dcf66c91622fa1b861","619595b47707942196f23d91","null","","null","","","","","main_T1_ITI","","","","",""
"","","","","","visual-search-circle","187","526872","0.0-14.0-0.0-1.86","6030050a5bdba4dd09d142f4","619531dcf66c91622fa1b861","619595b47707942196f23d91","2018.4000000059605","","d","true","[[599,310],[495,72],[243,5],[34,160],[25,420],[223,589],[478,540]]","true","7","main_T2_Trial","d","img/Fire_Down_Target.gif","[""img/Fire_Up_Distractor.gif"",""img/Fire_Up_Distractor.gif"",""img/Fire_Up_Distractor.gif"",""img/Fire_Up_Distractor.gif"",""img/Fire_Up_Distractor.gif"",""img/Fire_Up_Distractor.gif"",""img/Fire_Up_Distractor.gif"",""img/Fire_Up_Distractor.gif"",""img/Fire_Up_Distractor.gif"",""img/Fire_Up_Distractor.gif"",""img/Fire_Up_Distractor.gif"",""img/Fire_Up_Distractor.gif""]","7","targetDown_distractorsUp"
"","","","","","html-keyboard-response","188","526881","0.0-14.0-0.0-0.87","6030050a5bdba4dd09d142f4","619531dcf66c91622fa1b861","619595b47707942196f23d91","null","","null","","","","","main_T1_ITI","","","","",""
"","","","","","visual-search-circle","189","530354","0.0-14.0-0.0-1.87","6030050a5bdba4dd09d142f4","619531dcf66c91622fa1b861","619595b47707942196f23d91","2454.2999999821186","","s","false","[[0,279],[187,578],[529,492],[554,141],[227,8]]","true","5","main_T2_Trial","d","img/Fire_Up_Target.gif","[""img/Fire_Down_Distractor.gif"",""img/Fire_Down_Distractor.gif"",""img/Fire_Down_Distractor.gif"",""img/Fire_Down_Distractor.gif"",""img/Fire_Down_Distractor.gif"",""img/Fire_Down_Distractor.gif"",""img/Fire_Down_Distractor.gif"",""img/Fire_Down_Distractor.gif"",""img/Fire_Down_Distractor.gif"",""img/Fire_Down_Distractor.gif"",""img/Fire_Down_Distractor.gif"",""img/Fire_Down_Distractor.gif""]","5","targetUp_distractorsDown"
"","","","","","html-keyboard-response","190","530378","0.0-14.0-0.0-0.88","6030050a5bdba4dd09d142f4","619531dcf66c91622fa1b861","619595b47707942196f23d91","null","","null","","","","","main_T1_ITI","","","","",""
"","","","","","visual-search-circle","191","534037","0.0-14.0-0.0-1.88","6030050a5bdba4dd09d142f4","619531dcf66c91622fa1b861","619595b47707942196f23d91","2646","","s","false","[[84,91],[91,515],[515,508],[508,84]]","true","4","main_T2_Trial","d","img/Fire_Down_Target.gif","[""img/Fire_Up_Distractor.gif"",""img/Fire_Up_Distractor.gif"",""img/Fire_Up_Distractor.gif"",""img/Fire_Up_Distractor.gif"",""img/Fire_Up_Distractor.gif"",""img/Fire_Up_Distractor.gif"",""img/Fire_Up_Distractor.gif"",""img/Fire_Up_Distractor.gif"",""img/Fire_Up_Distractor.gif"",""img/Fire_Up_Distractor.gif"",""img/Fire_Up_Distractor.gif"",""img/Fire_Up_Distractor.gif""]","4","targetDown_distractorsUp"
"","","","","","html-keyboard-response","192","534059","0.0-14.0-0.0-0.89","6030050a5bdba4dd09d142f4","619531dcf66c91622fa1b861","619595b47707942196f23d91","null","","null","","","","","main_T1_ITI","","","","",""
"","","","","","visual-search-circle","193","537362","0.0-14.0-0.0-1.89","6030050a5bdba4dd09d142f4","619531dcf66c91622fa1b861","619595b47707942196f23d91","2281.800000011921","","s","true","[[5,242],[71,494],[309,599],[540,479],[590,223],[421,25],[161,34]]","false","7","main_T2_Trial","s","img/Fire_Down_Target.gif","[""img/Fire_Up_Distractor.gif"",""img/Fire_Up_Distractor.gif"",""img/Fire_Up_Distractor.gif"",""img/Fire_Up_Distractor.gif"",""img/Fire_Up_Distractor.gif"",""img/Fire_Up_Distractor.gif"",""img/Fire_Up_Distractor.gif"",""img/Fire_Up_Distractor.gif"",""img/Fire_Up_Distractor.gif"",""img/Fire_Up_Distractor.gif"",""img/Fire_Up_Distractor.gif"",""img/Fire_Up_Distractor.gif""]","7","targetDown_distractorsUp"
"","","","","","html-keyboard-response","194","537369","0.0-14.0-0.0-0.90","6030050a5bdba4dd09d142f4","619531dcf66c91622fa1b861","619595b47707942196f23d91","null","","null","","","","","main_T1_ITI","","","","",""
"","","","","","visual-search-circle","195","540446","0.0-14.0-0.0-1.90","6030050a5bdba4dd09d142f4","619531dcf66c91622fa1b861","619595b47707942196f23d91","2066","","s","true","[[11,382],[154,562],[382,588],[562,445],[588,217],[445,37],[217,11],[37,154]]","false","8","main_T2_Trial","s","img/Fire_Up_Target.gif","[""img/Fire_Down_Distractor.gif"",""img/Fire_Down_Distractor.gif"",""img/Fire_Down_Distractor.gif"",""img/Fire_Down_Distractor.gif"",""img/Fire_Down_Distractor.gif"",""img/Fire_Down_Distractor.gif"",""img/Fire_Down_Distractor.gif"",""img/Fire_Down_Distractor.gif"",""img/Fire_Down_Distractor.gif"",""img/Fire_Down_Distractor.gif"",""img/Fire_Down_Distractor.gif"",""img/Fire_Down_Distractor.gif""]","8","targetUp_distractorsDown"
"","","","","","html-keyboard-response","196","540452","0.0-14.0-0.0-0.91","6030050a5bdba4dd09d142f4","619531dcf66c91622fa1b861","619595b47707942196f23d91","null","","null","","","","","main_T1_ITI","","","","",""
"","","","","","visual-search-circle","197","545293","0.0-14.0-0.0-1.91","6030050a5bdba4dd09d142f4","619531dcf66c91622fa1b861","619595b47707942196f23d91","3830.4000000059605","","s","false","[[551,136],[362,6],[136,48],[6,237],[48,463],[237,593],[463,551],[593,362]]","true","8","main_T2_Trial","d","img/Fire_Up_Target.gif","[""img/Fire_Down_Distractor.gif"",""img/Fire_Down_Distractor.gif"",""img/Fire_Down_Distractor.gif"",""img/Fire_Down_Distractor.gif"",""img/Fire_Down_Distractor.gif"",""img/Fire_Down_Distractor.gif"",""img/Fire_Down_Distractor.gif"",""img/Fire_Down_Distractor.gif"",""img/Fire_Down_Distractor.gif"",""img/Fire_Down_Distractor.gif"",""img/Fire_Down_Distractor.gif"",""img/Fire_Down_Distractor.gif""]","8","targetUp_distractorsDown"
"","","","","","html-keyboard-response","198","545301","0.0-14.0-0.0-0.92","6030050a5bdba4dd09d142f4","619531dcf66c91622fa1b861","619595b47707942196f23d91","null","","null","","","","","main_T1_ITI","","","","",""
"","","","","","visual-search-circle","199","549221","0.0-14.0-0.0-1.92","6030050a5bdba4dd09d142f4","619531dcf66c91622fa1b861","619595b47707942196f23d91","2909.100000023842","","s","false","[[315,599],[544,474],[588,218],[415,23],[155,36],[4,248],[75,499]]","true","7","main_T2_Trial","d","img/Fire_Down_Target.gif","[""img/Fire_Up_Distractor.gif"",""img/Fire_Up_Distractor.gif"",""img/Fire_Up_Distractor.gif"",""img/Fire_Up_Distractor.gif"",""img/Fire_Up_Distractor.gif"",""img/Fire_Up_Distractor.gif"",""img/Fire_Up_Distractor.gif"",""img/Fire_Up_Distractor.gif"",""img/Fire_Up_Distractor.gif"",""img/Fire_Up_Distractor.gif"",""img/Fire_Up_Distractor.gif"",""img/Fire_Up_Distractor.gif""]","7","targetDown_distractorsUp"
"","","","","","html-keyboard-response","200","549223","0.0-14.0-0.0-0.93","6030050a5bdba4dd09d142f4","619531dcf66c91622fa1b861","619595b47707942196f23d91","null","","null","","","","","main_T1_ITI","","","","",""
"","","","","","visual-search-circle","201","553668","0.0-14.0-0.0-1.93","6030050a5bdba4dd09d142f4","619531dcf66c91622fa1b861","619595b47707942196f23d91","3441","","s","false","[[3,346],[253,596],[567,436],[512,87],[163,32]]","true","5","main_T2_Trial","d","img/Fire_Down_Target.gif","[""img/Fire_Up_Distractor.gif"",""img/Fire_Up_Distractor.gif"",""img/Fire_Up_Distractor.gif"",""img/Fire_Up_Distractor.gif"",""img/Fire_Up_Distractor.gif"",""img/Fire_Up_Distractor.gif"",""img/Fire_Up_Distractor.gif"",""img/Fire_Up_Distractor.gif"",""img/Fire_Up_Distractor.gif"",""img/Fire_Up_Distractor.gif"",""img/Fire_Up_Distractor.gif"",""img/Fire_Up_Distractor.gif""]","5","targetDown_distractorsUp"
"","","","","","html-keyboard-response","202","553679","0.0-14.0-0.0-0.94","6030050a5bdba4dd09d142f4","619531dcf66c91622fa1b861","619595b47707942196f23d91","null","","null","","","","","main_T1_ITI","","","","",""
"","","","","","visual-search-circle","203","558154","0.0-14.0-0.0-1.94","6030050a5bdba4dd09d142f4","619531dcf66c91622fa1b861","619595b47707942196f23d91","3466.2999999821186","","s","false","[[431,569],[583,397],[569,168],[397,16],[168,30],[16,202],[30,431],[202,583]]","true","8","main_T2_Trial","d","img/Fire_Up_Target.gif","[""img/Fire_Down_Distractor.gif"",""img/Fire_Down_Distractor.gif"",""img/Fire_Down_Distractor.gif"",""img/Fire_Down_Distractor.gif"",""img/Fire_Down_Distractor.gif"",""img/Fire_Down_Distractor.gif"",""img/Fire_Down_Distractor.gif"",""img/Fire_Down_Distractor.gif"",""img/Fire_Down_Distractor.gif"",""img/Fire_Down_Distractor.gif"",""img/Fire_Down_Distractor.gif"",""img/Fire_Down_Distractor.gif""]","8","targetUp_distractorsDown"
"","","","","","html-keyboard-response","204","558156","0.0-14.0-0.0-0.95","6030050a5bdba4dd09d142f4","619531dcf66c91622fa1b861","619595b47707942196f23d91","null","","null","","","","","main_T1_ITI","","","","",""
"","","","","","visual-search-circle","205","562354","0.0-14.0-0.0-1.95","6030050a5bdba4dd09d142f4","619531dcf66c91622fa1b861","619595b47707942196f23d91","3167.2000000178814","","d","true","[[154,562],[382,588],[562,445],[588,217],[445,37],[217,11],[37,154],[11,382]]","true","8","main_T2_Trial","d","img/Fire_Down_Target.gif","[""img/Fire_Up_Distractor.gif"",""img/Fire_Up_Distractor.gif"",""img/Fire_Up_Distractor.gif"",""img/Fire_Up_Distractor.gif"",""img/Fire_Up_Distractor.gif"",""img/Fire_Up_Distractor.gif"",""img/Fire_Up_Distractor.gif"",""img/Fire_Up_Distractor.gif"",""img/Fire_Up_Distractor.gif"",""img/Fire_Up_Distractor.gif"",""img/Fire_Up_Distractor.gif"",""img/Fire_Up_Distractor.gif""]","8","targetDown_distractorsUp"
"","","","","","html-keyboard-response","206","562356","0.0-14.0-0.0-0.96","6030050a5bdba4dd09d142f4","619531dcf66c91622fa1b861","619595b47707942196f23d91","null","","null","","","","","main_T1_ITI","","","","",""
"","","","","","visual-search-circle","207","566543","0.0-14.0-0.0-1.96","6030050a5bdba4dd09d142f4","619531dcf66c91622fa1b861","619595b47707942196f23d91","3169.4000000059605","","d","true","[[504,80],[256,3],[40,149],[20,408],[210,586],[468,548],[599,323]]","true","7","main_T2_Trial","d","img/Fire_Down_Target.gif","[""img/Fire_Up_Distractor.gif"",""img/Fire_Up_Distractor.gif"",""img/Fire_Up_Distractor.gif"",""img/Fire_Up_Distractor.gif"",""img/Fire_Up_Distractor.gif"",""img/Fire_Up_Distractor.gif"",""img/Fire_Up_Distractor.gif"",""img/Fire_Up_Distractor.gif"",""img/Fire_Up_Distractor.gif"",""img/Fire_Up_Distractor.gif"",""img/Fire_Up_Distractor.gif"",""img/Fire_Up_Distractor.gif""]","7","targetDown_distractorsUp"
"","","","","","html-keyboard-response","208","566547","0.0-14.0-0.0-0.97","6030050a5bdba4dd09d142f4","619531dcf66c91622fa1b861","619595b47707942196f23d91","null","","null","","","","","main_T1_ITI","","","","",""
"","","","","","visual-search-circle","209","571141","0.0-14.0-0.0-1.97","6030050a5bdba4dd09d142f4","619531dcf66c91622fa1b861","619595b47707942196f23d91","3580.4000000059605","","s","false","[[341,597],[595,352],[440,35],[91,84],[30,431]]","true","5","main_T2_Trial","d","img/Fire_Up_Target.gif","[""img/Fire_Down_Distractor.gif"",""img/Fire_Down_Distractor.gif"",""img/Fire_Down_Distractor.gif"",""img/Fire_Down_Distractor.gif"",""img/Fire_Down_Distractor.gif"",""img/Fire_Down_Distractor.gif"",""img/Fire_Down_Distractor.gif"",""img/Fire_Down_Distractor.gif"",""img/Fire_Down_Distractor.gif"",""img/Fire_Down_Distractor.gif"",""img/Fire_Down_Distractor.gif"",""img/Fire_Down_Distractor.gif""]","5","targetUp_distractorsDown"
"","","","","","html-keyboard-response","210","571146","0.0-14.0-0.0-0.98","6030050a5bdba4dd09d142f4","619531dcf66c91622fa1b861","619595b47707942196f23d91","null","","null","","","","","main_T1_ITI","","","","",""
"","","","","","visual-search-circle","211","580583","0.0-14.0-0.0-1.98","6030050a5bdba4dd09d142f4","619531dcf66c91622fa1b861","619595b47707942196f23d91","8416.09999999404","","s","false","[[187,21],[23,182],[21,412],[182,576],[412,578],[576,417],[578,187],[417,23]]","true","8","main_T2_Trial","d","img/Fire_Up_Target.gif","[""img/Fire_Down_Distractor.gif"",""img/Fire_Down_Distractor.gif"",""img/Fire_Down_Distractor.gif"",""img/Fire_Down_Distractor.gif"",""img/Fire_Down_Distractor.gif"",""img/Fire_Down_Distractor.gif"",""img/Fire_Down_Distractor.gif"",""img/Fire_Down_Distractor.gif"",""img/Fire_Down_Distractor.gif"",""img/Fire_Down_Distractor.gif"",""img/Fire_Down_Distractor.gif"",""img/Fire_Down_Distractor.gif""]","8","targetUp_distractorsDown"
"","","","","","html-keyboard-response","212","584148","0.0-14.0-0.0-0.99","6030050a5bdba4dd09d142f4","619531dcf66c91622fa1b861","619595b47707942196f23d91","3564.4000000059605","Wow! You've completed 100 out of 160 trials! </p> <p>  </p><p> Take a quick break, then press any key when you're ready to continue."," ","","","","","main_T1_ITI","","","","",""
"","","","","","visual-search-circle","213","587823","0.0-14.0-0.0-1.99","6030050a5bdba4dd09d142f4","619531dcf66c91622fa1b861","619595b47707942196f23d91","2656","","s","true","[[450,40],[190,20],[13,211],[52,468],[277,599],[519,504],[596,255]]","false","7","main_T2_Trial","s","img/Fire_Up_Target.gif","[""img/Fire_Down_Distractor.gif"",""img/Fire_Down_Distractor.gif"",""img/Fire_Down_Distractor.gif"",""img/Fire_Down_Distractor.gif"",""img/Fire_Down_Distractor.gif"",""img/Fire_Down_Distractor.gif"",""img/Fire_Down_Distractor.gif"",""img/Fire_Down_Distractor.gif"",""img/Fire_Down_Distractor.gif"",""img/Fire_Down_Distractor.gif"",""img/Fire_Down_Distractor.gif"",""img/Fire_Down_Distractor.gif""]","7","targetUp_distractorsDown"
"","","","","","html-keyboard-response","214","587825","0.0-14.0-0.0-0.100","6030050a5bdba4dd09d142f4","619531dcf66c91622fa1b861","619595b47707942196f23d91","null","","null","","","","","main_T1_ITI","","","","",""
"","","","","","visual-search-circle","215","591266","0.0-14.0-0.0-1.100","6030050a5bdba4dd09d142f4","619531dcf66c91622fa1b861","619595b47707942196f23d91","2420.300000011921","","s","false","[[273,1],[28,173],[54,472],[326,598],[571,426],[545,127]]","true","6","main_T2_Trial","d","img/Fire_Up_Target.gif","[""img/Fire_Down_Distractor.gif"",""img/Fire_Down_Distractor.gif"",""img/Fire_Down_Distractor.gif"",""img/Fire_Down_Distractor.gif"",""img/Fire_Down_Distractor.gif"",""img/Fire_Down_Distractor.gif"",""img/Fire_Down_Distractor.gif"",""img/Fire_Down_Distractor.gif"",""img/Fire_Down_Distractor.gif"",""img/Fire_Down_Distractor.gif"",""img/Fire_Down_Distractor.gif"",""img/Fire_Down_Distractor.gif""]","6","targetUp_distractorsDown"
"","","","","","html-keyboard-response","216","591275","0.0-14.0-0.0-0.101","6030050a5bdba4dd09d142f4","619531dcf66c91622fa1b861","619595b47707942196f23d91","null","","null","","","","","main_T1_ITI","","","","",""
