"success","timeout","failed_images","failed_audio","failed_video","trial_type","trial_index","time_elapsed","internal_node_id","subject_id","study_id","session_id","rt","stimulus","response","correct","locations","target_present","set_size","task","correct_response","target","foilCM","setSizeCM","searchCondition"
"true","false","[]","[]","[]","preload","0","216589","0.0-0.0","603823018fd0a91c7386e2b7","619531dcf66c91622fa1b861","619596b8c45d18f51806a8d7","","","","","","","","","","","","",""
"true","","","","","fullscreen","1","310490","0.0-1.0","603823018fd0a91c7386e2b7","619531dcf66c91622fa1b861","619596b8c45d18f51806a8d7","","","","","","","","","","","","",""
"","","","","","html-keyboard-response","2","318185","0.0-2.0","603823018fd0a91c7386e2b7","619531dcf66c91622fa1b861","619596b8c45d18f51806a8d7","7694.800000011921","What a beautiful Wednesday to do some awesome science! </p> <p>  </p><p> </p>
    By completing this survey or questionnaire, you are consenting to be in this research study. </p>
    Your participation is voluntary and you can stop at any time.
    <p> [Press any key to continue.] </p>
    
    ","enter","","","","","","","","","",""
"","","","","","video-keyboard-response","3","367712","0.0-3.0","603823018fd0a91c7386e2b7","619531dcf66c91622fa1b861","619596b8c45d18f51806a8d7","49524.89999997616","[""video/TaskInstructions.mp4""]","enter","","","","","","","","","",""
"","","","","","html-keyboard-response","4","373129","0.0-4.0","603823018fd0a91c7386e2b7","619531dcf66c91622fa1b861","619596b8c45d18f51806a8d7","5416","
    <p>First, we're going to do a few practice trials to make sure you understand the task. You will recieve feedback on each trial. </p>
    <p>[Press any key to begin the familiarization phase.]</p>
    ","enter","","","","","","","","","",""
"","","","","","visual-search-circle","5","377297","0.0-5.0-0.0","603823018fd0a91c7386e2b7","619531dcf66c91622fa1b861","619596b8c45d18f51806a8d7","3113.300000011921","","d","true","[[346,3],[3,253],[253,596],[596,346]]","true","4","training","d","","","",""
"","","","","","html-keyboard-response","6","380301","0.0-6.0","603823018fd0a91c7386e2b7","619531dcf66c91622fa1b861","619596b8c45d18f51806a8d7","3003.199999988079"," <div style='float: center; '><img src='img/feedbackRight.png'></img> </div> ","enter","","","","","","","","","",""
"","","","","","visual-search-circle","7","385792","0.0-7.0-0.0","603823018fd0a91c7386e2b7","619531dcf66c91622fa1b861","619596b8c45d18f51806a8d7","4488","","d","false","[[331,598],[598,268],[268,1],[1,331]]","false","4","training","s","","","",""
"","","","","","html-keyboard-response","8","390890","0.0-8.0","603823018fd0a91c7386e2b7","619531dcf66c91622fa1b861","619596b8c45d18f51806a8d7","5096.5999999940395"," <div style='float: center;'><img src='img/feedbackWrong.png'></img> </div> ","enter","","","","","","","","","",""
"","","","","","visual-search-circle","9","396251","0.0-9.0-0.0","603823018fd0a91c7386e2b7","619531dcf66c91622fa1b861","619596b8c45d18f51806a8d7","4357.800000011921","","s","true","[[212,586],[504,519],[592,232],[387,13],[95,80],[7,367]]","false","6","training","s","","","",""
"","","","","","html-keyboard-response","10","397920","0.0-10.0","603823018fd0a91c7386e2b7","619531dcf66c91622fa1b861","619596b8c45d18f51806a8d7","1668.699999988079"," <div style='float: center; '><img src='img/feedbackRight.png'></img> </div> ","enter","","","","","","","","","",""
"","","","","","visual-search-circle","11","406416","0.0-11.0-0.0","603823018fd0a91c7386e2b7","619531dcf66c91622fa1b861","619596b8c45d18f51806a8d7","7490.699999988079","","d","true","[[95,519],[310,599],[519,504],[599,289],[504,80],[289,0],[80,95],[0,310]]","true","8","training","d","","","",""
"","","","","","html-keyboard-response","12","407856","0.0-12.0","603823018fd0a91c7386e2b7","619531dcf66c91622fa1b861","619596b8c45d18f51806a8d7","1439.300000011921"," <div style='float: center; '><img src='img/feedbackRight.png'></img> </div> ","enter","","","","","","","","","",""
"","","","","","video-keyboard-response","13","415163","0.0-13.0","603823018fd0a91c7386e2b7","619531dcf66c91622fa1b861","619596b8c45d18f51806a8d7","7306.4000000059605","[""video/endTraining.mp4""]","enter","","","","","","","","","",""
"","","","","","html-keyboard-response","14","415165","0.0-14.0-0.0-0.0","603823018fd0a91c7386e2b7","619531dcf66c91622fa1b861","619596b8c45d18f51806a8d7","null","","null","","","","","main_T1_ITI","","","","",""
"","","","","","visual-search-circle","15","422111","0.0-14.0-0.0-1.0","603823018fd0a91c7386e2b7","619531dcf66c91622fa1b861","619596b8c45d18f51806a8d7","5942.9000000059605","","s","false","[[57,123],[123,542],[542,476],[476,57]]","true","4","main_T2_Trial","d","img/Fire_Down_Target.gif","[""img/Fire_Up_Distractor.gif"",""img/Fire_Up_Distractor.gif"",""img/Fire_Up_Distractor.gif"",""img/Fire_Up_Distractor.gif"",""img/Fire_Up_Distractor.gif"",""img/Fire_Up_Distractor.gif"",""img/Fire_Up_Distractor.gif"",""img/Fire_Up_Distractor.gif"",""img/Fire_Up_Distractor.gif"",""img/Fire_Up_Distractor.gif"",""img/Fire_Up_Distractor.gif"",""img/Fire_Up_Distractor.gif""]","4","targetDown_distractorsUp"
"","","","","","html-keyboard-response","16","422114","0.0-14.0-0.0-0.1","603823018fd0a91c7386e2b7","619531dcf66c91622fa1b861","619596b8c45d18f51806a8d7","null","","null","","","","","main_T1_ITI","","","","",""
"","","","","","visual-search-circle","17","426642","0.0-14.0-0.0-1.1","603823018fd0a91c7386e2b7","619531dcf66c91622fa1b861","619596b8c45d18f51806a8d7","3525.300000011921","","d","true","[[28,426],[229,591],[484,536],[599,303],[489,67],[236,6],[31,166]]","true","7","main_T2_Trial","d","img/Fire_Up_Target.gif","[""img/Fire_Down_Distractor.gif"",""img/Fire_Down_Distractor.gif"",""img/Fire_Down_Distractor.gif"",""img/Fire_Down_Distractor.gif"",""img/Fire_Down_Distractor.gif"",""img/Fire_Down_Distractor.gif"",""img/Fire_Down_Distractor.gif"",""img/Fire_Down_Distractor.gif"",""img/Fire_Down_Distractor.gif"",""img/Fire_Down_Distractor.gif"",""img/Fire_Down_Distractor.gif"",""img/Fire_Down_Distractor.gif""]","7","targetUp_distractorsDown"
"","","","","","html-keyboard-response","18","426645","0.0-14.0-0.0-0.2","603823018fd0a91c7386e2b7","619531dcf66c91622fa1b861","619596b8c45d18f51806a8d7","null","","null","","","","","main_T1_ITI","","","","",""
"","","","","","visual-search-circle","19","438346","0.0-14.0-0.0-1.2","603823018fd0a91c7386e2b7","619531dcf66c91622fa1b861","619596b8c45d18f51806a8d7","10697.700000017881","","s","false","[[2,341],[187,578],[484,536],[597,258],[412,21],[115,63]]","true","6","main_T2_Trial","d","img/Fire_Down_Target.gif","[""img/Fire_Up_Distractor.gif"",""img/Fire_Up_Distractor.gif"",""img/Fire_Up_Distractor.gif"",""img/Fire_Up_Distractor.gif"",""img/Fire_Up_Distractor.gif"",""img/Fire_Up_Distractor.gif"",""img/Fire_Up_Distractor.gif"",""img/Fire_Up_Distractor.gif"",""img/Fire_Up_Distractor.gif"",""img/Fire_Up_Distractor.gif"",""img/Fire_Up_Distractor.gif"",""img/Fire_Up_Distractor.gif""]","6","targetDown_distractorsUp"
"","","","","","html-keyboard-response","20","438348","0.0-14.0-0.0-0.3","603823018fd0a91c7386e2b7","619531dcf66c91622fa1b861","619596b8c45d18f51806a8d7","null","","null","","","","","main_T1_ITI","","","","",""
"","","","","","visual-search-circle","21","449147","0.0-14.0-0.0-1.3","603823018fd0a91c7386e2b7","619531dcf66c91622fa1b861","619596b8c45d18f51806a8d7","9794.300000011921","","s","false","[[426,28],[127,54],[1,326],[173,571],[472,545],[598,273]]","true","6","main_T2_Trial","d","img/Fire_Up_Target.gif","[""img/Fire_Down_Distractor.gif"",""img/Fire_Down_Distractor.gif"",""img/Fire_Down_Distractor.gif"",""img/Fire_Down_Distractor.gif"",""img/Fire_Down_Distractor.gif"",""img/Fire_Down_Distractor.gif"",""img/Fire_Down_Distractor.gif"",""img/Fire_Down_Distractor.gif"",""img/Fire_Down_Distractor.gif"",""img/Fire_Down_Distractor.gif"",""img/Fire_Down_Distractor.gif"",""img/Fire_Down_Distractor.gif""]","6","targetUp_distractorsDown"
"","","","","","html-keyboard-response","22","449149","0.0-14.0-0.0-0.4","603823018fd0a91c7386e2b7","619531dcf66c91622fa1b861","619596b8c45d18f51806a8d7","null","","null","","","","","main_T1_ITI","","","","",""
"","","","","","visual-search-circle","23","463781","0.0-14.0-0.0-1.4","603823018fd0a91c7386e2b7","619531dcf66c91622fa1b861","619596b8c45d18f51806a8d7","13626.59999999404","","s","false","[[598,273],[492,70],[273,1],[70,107],[1,326],[107,529],[326,598],[529,492]]","true","8","main_T2_Trial","d","img/Fire_Up_Target.gif","[""img/Fire_Down_Distractor.gif"",""img/Fire_Down_Distractor.gif"",""img/Fire_Down_Distractor.gif"",""img/Fire_Down_Distractor.gif"",""img/Fire_Down_Distractor.gif"",""img/Fire_Down_Distractor.gif"",""img/Fire_Down_Distractor.gif"",""img/Fire_Down_Distractor.gif"",""img/Fire_Down_Distractor.gif"",""img/Fire_Down_Distractor.gif"",""img/Fire_Down_Distractor.gif"",""img/Fire_Down_Distractor.gif""]","8","targetUp_distractorsDown"
"","","","","","html-keyboard-response","24","463784","0.0-14.0-0.0-0.5","603823018fd0a91c7386e2b7","619531dcf66c91622fa1b861","619596b8c45d18f51806a8d7","null","","null","","","","","main_T1_ITI","","","","",""
"","","","","","visual-search-circle","25","470901","0.0-14.0-0.0-1.5","603823018fd0a91c7386e2b7","619531dcf66c91622fa1b861","619596b8c45d18f51806a8d7","6113.4000000059605","","d","false","[[310,0],[18,197],[115,536],[467,548],[588,217]]","false","5","main_T2_Trial","s","img/Fire_Up_Target.gif","[""img/Fire_Down_Distractor.gif"",""img/Fire_Down_Distractor.gif"",""img/Fire_Down_Distractor.gif"",""img/Fire_Down_Distractor.gif"",""img/Fire_Down_Distractor.gif"",""img/Fire_Down_Distractor.gif"",""img/Fire_Down_Distractor.gif"",""img/Fire_Down_Distractor.gif"",""img/Fire_Down_Distractor.gif"",""img/Fire_Down_Distractor.gif"",""img/Fire_Down_Distractor.gif"",""img/Fire_Down_Distractor.gif""]","5","targetUp_distractorsDown"
"","","","","","html-keyboard-response","26","470902","0.0-14.0-0.0-0.6","603823018fd0a91c7386e2b7","619531dcf66c91622fa1b861","619596b8c45d18f51806a8d7","null","","null","","","","","main_T1_ITI","","","","",""
"","","","","","visual-search-circle","27","485028","0.0-14.0-0.0-1.6","603823018fd0a91c7386e2b7","619531dcf66c91622fa1b861","619596b8c45d18f51806a8d7","13121.59999999404","","s","false","[[19,192],[66,488],[346,596],[580,407],[533,111],[253,3]]","true","6","main_T2_Trial","d","img/Fire_Up_Target.gif","[""img/Fire_Down_Distractor.gif"",""img/Fire_Down_Distractor.gif"",""img/Fire_Down_Distractor.gif"",""img/Fire_Down_Distractor.gif"",""img/Fire_Down_Distractor.gif"",""img/Fire_Down_Distractor.gif"",""img/Fire_Down_Distractor.gif"",""img/Fire_Down_Distractor.gif"",""img/Fire_Down_Distractor.gif"",""img/Fire_Down_Distractor.gif"",""img/Fire_Down_Distractor.gif"",""img/Fire_Down_Distractor.gif""]","6","targetUp_distractorsDown"
"","","","","","html-keyboard-response","28","485031","0.0-14.0-0.0-0.7","603823018fd0a91c7386e2b7","619531dcf66c91622fa1b861","619596b8c45d18f51806a8d7","null","","null","","","","","main_T1_ITI","","","","",""
"","","","","","visual-search-circle","29","489255","0.0-14.0-0.0-1.7","603823018fd0a91c7386e2b7","619531dcf66c91622fa1b861","619596b8c45d18f51806a8d7","3221","","d","true","[[536,484],[578,187],[341,2],[63,115],[21,412],[258,597]]","true","6","main_T2_Trial","d","img/Fire_Up_Target.gif","[""img/Fire_Down_Distractor.gif"",""img/Fire_Down_Distractor.gif"",""img/Fire_Down_Distractor.gif"",""img/Fire_Down_Distractor.gif"",""img/Fire_Down_Distractor.gif"",""img/Fire_Down_Distractor.gif"",""img/Fire_Down_Distractor.gif"",""img/Fire_Down_Distractor.gif"",""img/Fire_Down_Distractor.gif"",""img/Fire_Down_Distractor.gif"",""img/Fire_Down_Distractor.gif"",""img/Fire_Down_Distractor.gif""]","6","targetUp_distractorsDown"
"","","","","","html-keyboard-response","30","489257","0.0-14.0-0.0-0.8","603823018fd0a91c7386e2b7","619531dcf66c91622fa1b861","619596b8c45d18f51806a8d7","null","","null","","","","","main_T1_ITI","","","","",""
"","","","","","visual-search-circle","31","503533","0.0-14.0-0.0-1.8","603823018fd0a91c7386e2b7","619531dcf66c91622fa1b861","619596b8c45d18f51806a8d7","13273.299999982119","","s","true","[[145,42],[42,454],[454,557],[557,145]]","false","4","main_T2_Trial","s","img/Fire_Up_Target.gif","[""img/Fire_Down_Distractor.gif"",""img/Fire_Down_Distractor.gif"",""img/Fire_Down_Distractor.gif"",""img/Fire_Down_Distractor.gif"",""img/Fire_Down_Distractor.gif"",""img/Fire_Down_Distractor.gif"",""img/Fire_Down_Distractor.gif"",""img/Fire_Down_Distractor.gif"",""img/Fire_Down_Distractor.gif"",""img/Fire_Down_Distractor.gif"",""img/Fire_Down_Distractor.gif"",""img/Fire_Down_Distractor.gif""]","4","targetUp_distractorsDown"
"","","","","","html-keyboard-response","32","503535","0.0-14.0-0.0-0.9","603823018fd0a91c7386e2b7","619531dcf66c91622fa1b861","619596b8c45d18f51806a8d7","null","","null","","","","","main_T1_ITI","","","","",""
"","","","","","visual-search-circle","33","507413","0.0-14.0-0.0-1.9","603823018fd0a91c7386e2b7","619531dcf66c91622fa1b861","619596b8c45d18f51806a8d7","2876.300000011921","","d","true","[[598,326],[326,1],[1,273],[273,598]]","true","4","main_T2_Trial","d","img/Fire_Down_Target.gif","[""img/Fire_Up_Distractor.gif"",""img/Fire_Up_Distractor.gif"",""img/Fire_Up_Distractor.gif"",""img/Fire_Up_Distractor.gif"",""img/Fire_Up_Distractor.gif"",""img/Fire_Up_Distractor.gif"",""img/Fire_Up_Distractor.gif"",""img/Fire_Up_Distractor.gif"",""img/Fire_Up_Distractor.gif"",""img/Fire_Up_Distractor.gif"",""img/Fire_Up_Distractor.gif"",""img/Fire_Up_Distractor.gif""]","4","targetDown_distractorsUp"
"","","","","","html-keyboard-response","34","507415","0.0-14.0-0.0-0.10","603823018fd0a91c7386e2b7","619531dcf66c91622fa1b861","619596b8c45d18f51806a8d7","null","","null","","","","","main_T1_ITI","","","","",""
"","","","","","visual-search-circle","35","520233","0.0-14.0-0.0-1.10","603823018fd0a91c7386e2b7","619531dcf66c91622fa1b861","619596b8c45d18f51806a8d7","11814.300000011921","","d","true","[[326,598],[592,367],[454,42],[103,73],[23,417]]","true","5","main_T2_Trial","d","img/Fire_Down_Target.gif","[""img/Fire_Up_Distractor.gif"",""img/Fire_Up_Distractor.gif"",""img/Fire_Up_Distractor.gif"",""img/Fire_Up_Distractor.gif"",""img/Fire_Up_Distractor.gif"",""img/Fire_Up_Distractor.gif"",""img/Fire_Up_Distractor.gif"",""img/Fire_Up_Distractor.gif"",""img/Fire_Up_Distractor.gif"",""img/Fire_Up_Distractor.gif"",""img/Fire_Up_Distractor.gif"",""img/Fire_Up_Distractor.gif""]","5","targetDown_distractorsUp"
"","","","","","html-keyboard-response","36","520235","0.0-14.0-0.0-0.11","603823018fd0a91c7386e2b7","619531dcf66c91622fa1b861","619596b8c45d18f51806a8d7","null","","null","","","","","main_T1_ITI","","","","",""
"","","","","","visual-search-circle","37","524285","0.0-14.0-0.0-1.11","603823018fd0a91c7386e2b7","619531dcf66c91622fa1b861","619596b8c45d18f51806a8d7","3047.199999988079","","s","true","[[232,7],[7,367],[367,592],[592,232]]","false","4","main_T2_Trial","s","img/Fire_Up_Target.gif","[""img/Fire_Down_Distractor.gif"",""img/Fire_Down_Distractor.gif"",""img/Fire_Down_Distractor.gif"",""img/Fire_Down_Distractor.gif"",""img/Fire_Down_Distractor.gif"",""img/Fire_Down_Distractor.gif"",""img/Fire_Down_Distractor.gif"",""img/Fire_Down_Distractor.gif"",""img/Fire_Down_Distractor.gif"",""img/Fire_Down_Distractor.gif"",""img/Fire_Down_Distractor.gif"",""img/Fire_Down_Distractor.gif""]","4","targetUp_distractorsDown"
"","","","","","html-keyboard-response","38","524287","0.0-14.0-0.0-0.12","603823018fd0a91c7386e2b7","619531dcf66c91622fa1b861","619596b8c45d18f51806a8d7","null","","null","","","","","main_T1_ITI","","","","",""
"","","","","","visual-search-circle","39","529194","0.0-14.0-0.0-1.12","603823018fd0a91c7386e2b7","619531dcf66c91622fa1b861","619596b8c45d18f51806a8d7","3904.0999999940395","","d","true","[[99,77],[77,500],[500,522],[522,99]]","true","4","main_T2_Trial","d","img/Fire_Up_Target.gif","[""img/Fire_Down_Distractor.gif"",""img/Fire_Down_Distractor.gif"",""img/Fire_Down_Distractor.gif"",""img/Fire_Down_Distractor.gif"",""img/Fire_Down_Distractor.gif"",""img/Fire_Down_Distractor.gif"",""img/Fire_Down_Distractor.gif"",""img/Fire_Down_Distractor.gif"",""img/Fire_Down_Distractor.gif"",""img/Fire_Down_Distractor.gif"",""img/Fire_Down_Distractor.gif"",""img/Fire_Down_Distractor.gif""]","4","targetUp_distractorsDown"
"","","","","","html-keyboard-response","40","529197","0.0-14.0-0.0-0.13","603823018fd0a91c7386e2b7","619531dcf66c91622fa1b861","619596b8c45d18f51806a8d7","null","","null","","","","","main_T1_ITI","","","","",""
"","","","","","visual-search-circle","41","539231","0.0-14.0-0.0-1.13","603823018fd0a91c7386e2b7","619531dcf66c91622fa1b861","619596b8c45d18f51806a8d7","9031.09999999404","","s","false","[[232,7],[1,273],[182,576],[526,496],[557,145]]","true","5","main_T2_Trial","d","img/Fire_Up_Target.gif","[""img/Fire_Down_Distractor.gif"",""img/Fire_Down_Distractor.gif"",""img/Fire_Down_Distractor.gif"",""img/Fire_Down_Distractor.gif"",""img/Fire_Down_Distractor.gif"",""img/Fire_Down_Distractor.gif"",""img/Fire_Down_Distractor.gif"",""img/Fire_Down_Distractor.gif"",""img/Fire_Down_Distractor.gif"",""img/Fire_Down_Distractor.gif"",""img/Fire_Down_Distractor.gif"",""img/Fire_Down_Distractor.gif""]","5","targetUp_distractorsDown"
"","","","","","html-keyboard-response","42","539233","0.0-14.0-0.0-0.14","603823018fd0a91c7386e2b7","619531dcf66c91622fa1b861","619596b8c45d18f51806a8d7","null","","null","","","","","main_T1_ITI","","","","",""
"","","","","","visual-search-circle","43","548221","0.0-14.0-0.0-1.14","603823018fd0a91c7386e2b7","619531dcf66c91622fa1b861","619596b8c45d18f51806a8d7","7982.299999982119","","d","true","[[163,567],[392,585],[567,436],[585,207],[436,32],[207,14],[32,163],[14,392]]","true","8","main_T2_Trial","d","img/Fire_Up_Target.gif","[""img/Fire_Down_Distractor.gif"",""img/Fire_Down_Distractor.gif"",""img/Fire_Down_Distractor.gif"",""img/Fire_Down_Distractor.gif"",""img/Fire_Down_Distractor.gif"",""img/Fire_Down_Distractor.gif"",""img/Fire_Down_Distractor.gif"",""img/Fire_Down_Distractor.gif"",""img/Fire_Down_Distractor.gif"",""img/Fire_Down_Distractor.gif"",""img/Fire_Down_Distractor.gif"",""img/Fire_Down_Distractor.gif""]","8","targetUp_distractorsDown"
"","","","","","html-keyboard-response","44","548223","0.0-14.0-0.0-0.15","603823018fd0a91c7386e2b7","619531dcf66c91622fa1b861","619596b8c45d18f51806a8d7","null","","null","","","","","main_T1_ITI","","","","",""
"","","","","","visual-search-circle","45","558268","0.0-14.0-0.0-1.15","603823018fd0a91c7386e2b7","619531dcf66c91622fa1b861","619596b8c45d18f51806a8d7","9041.700000017881","","d","true","[[299,600],[585,392],[476,57],[123,57],[14,392]]","true","5","main_T2_Trial","d","img/Fire_Up_Target.gif","[""img/Fire_Down_Distractor.gif"",""img/Fire_Down_Distractor.gif"",""img/Fire_Down_Distractor.gif"",""img/Fire_Down_Distractor.gif"",""img/Fire_Down_Distractor.gif"",""img/Fire_Down_Distractor.gif"",""img/Fire_Down_Distractor.gif"",""img/Fire_Down_Distractor.gif"",""img/Fire_Down_Distractor.gif"",""img/Fire_Down_Distractor.gif"",""img/Fire_Down_Distractor.gif"",""img/Fire_Down_Distractor.gif""]","5","targetUp_distractorsDown"
"","","","","","html-keyboard-response","46","558270","0.0-14.0-0.0-0.16","603823018fd0a91c7386e2b7","619531dcf66c91622fa1b861","619596b8c45d18f51806a8d7","null","","null","","","","","main_T1_ITI","","","","",""
"","","","","","visual-search-circle","47","571198","0.0-14.0-0.0-1.16","603823018fd0a91c7386e2b7","619531dcf66c91622fa1b861","619596b8c45d18f51806a8d7","11924.700000017881","","d","true","[[154,37],[0,294],[145,557],[445,562],[599,305],[454,42]]","true","6","main_T2_Trial","d","img/Fire_Up_Target.gif","[""img/Fire_Down_Distractor.gif"",""img/Fire_Down_Distractor.gif"",""img/Fire_Down_Distractor.gif"",""img/Fire_Down_Distractor.gif"",""img/Fire_Down_Distractor.gif"",""img/Fire_Down_Distractor.gif"",""img/Fire_Down_Distractor.gif"",""img/Fire_Down_Distractor.gif"",""img/Fire_Down_Distractor.gif"",""img/Fire_Down_Distractor.gif"",""img/Fire_Down_Distractor.gif"",""img/Fire_Down_Distractor.gif""]","6","targetUp_distractorsDown"
"","","","","","html-keyboard-response","48","571200","0.0-14.0-0.0-0.17","603823018fd0a91c7386e2b7","619531dcf66c91622fa1b861","619596b8c45d18f51806a8d7","null","","null","","","","","main_T1_ITI","","","","",""
"","","","","","visual-search-circle","49","577493","0.0-14.0-0.0-1.17","603823018fd0a91c7386e2b7","619531dcf66c91622fa1b861","619596b8c45d18f51806a8d7","5289.5999999940395","","s","true","[[397,583],[594,357],[496,73],[202,16],[5,242],[103,526]]","false","6","main_T2_Trial","s","img/Fire_Down_Target.gif","[""img/Fire_Up_Distractor.gif"",""img/Fire_Up_Distractor.gif"",""img/Fire_Up_Distractor.gif"",""img/Fire_Up_Distractor.gif"",""img/Fire_Up_Distractor.gif"",""img/Fire_Up_Distractor.gif"",""img/Fire_Up_Distractor.gif"",""img/Fire_Up_Distractor.gif"",""img/Fire_Up_Distractor.gif"",""img/Fire_Up_Distractor.gif"",""img/Fire_Up_Distractor.gif"",""img/Fire_Up_Distractor.gif""]","6","targetDown_distractorsUp"
"","","","","","html-keyboard-response","50","577496","0.0-14.0-0.0-0.18","603823018fd0a91c7386e2b7","619531dcf66c91622fa1b861","619596b8c45d18f51806a8d7","null","","null","","","","","main_T1_ITI","","","","",""
"","","","","","visual-search-circle","51","584666","0.0-14.0-0.0-1.18","603823018fd0a91c7386e2b7","619531dcf66c91622fa1b861","619596b8c45d18f51806a8d7","6166.5999999940395","","s","true","[[593,362],[449,40],[99,77],[25,422],[331,598]]","false","5","main_T2_Trial","s","img/Fire_Down_Target.gif","[""img/Fire_Up_Distractor.gif"",""img/Fire_Up_Distractor.gif"",""img/Fire_Up_Distractor.gif"",""img/Fire_Up_Distractor.gif"",""img/Fire_Up_Distractor.gif"",""img/Fire_Up_Distractor.gif"",""img/Fire_Up_Distractor.gif"",""img/Fire_Up_Distractor.gif"",""img/Fire_Up_Distractor.gif"",""img/Fire_Up_Distractor.gif"",""img/Fire_Up_Distractor.gif"",""img/Fire_Up_Distractor.gif""]","5","targetDown_distractorsUp"
"","","","","","html-keyboard-response","52","591554","0.0-14.0-0.0-0.19","603823018fd0a91c7386e2b7","619531dcf66c91622fa1b861","619596b8c45d18f51806a8d7","6888","Wow! You've completed 20 out of 160 trials! </p> <p>  </p><p> Take a quick break, then press any key when you're ready to continue.","enter","","","","","main_T1_ITI","","","","",""
"","","","","","visual-search-circle","53","596754","0.0-14.0-0.0-1.19","603823018fd0a91c7386e2b7","619531dcf66c91622fa1b861","619596b8c45d18f51806a8d7","4184.5","","s","true","[[163,32],[32,436],[436,567],[567,163]]","false","4","main_T2_Trial","s","img/Fire_Down_Target.gif","[""img/Fire_Up_Distractor.gif"",""img/Fire_Up_Distractor.gif"",""img/Fire_Up_Distractor.gif"",""img/Fire_Up_Distractor.gif"",""img/Fire_Up_Distractor.gif"",""img/Fire_Up_Distractor.gif"",""img/Fire_Up_Distractor.gif"",""img/Fire_Up_Distractor.gif"",""img/Fire_Up_Distractor.gif"",""img/Fire_Up_Distractor.gif"",""img/Fire_Up_Distractor.gif"",""img/Fire_Up_Distractor.gif""]","4","targetDown_distractorsUp"
"","","","","","html-keyboard-response","54","596759","0.0-14.0-0.0-0.20","603823018fd0a91c7386e2b7","619531dcf66c91622fa1b861","619596b8c45d18f51806a8d7","null","","null","","","","","main_T1_ITI","","","","",""
"","","","","","visual-search-circle","55","600304","0.0-14.0-0.0-1.20","603823018fd0a91c7386e2b7","619531dcf66c91622fa1b861","619596b8c45d18f51806a8d7","2541.199999988079","","d","true","[[326,598],[529,492],[598,273],[492,70],[273,1],[70,107],[1,326],[107,529]]","true","8","main_T2_Trial","d","img/Fire_Down_Target.gif","[""img/Fire_Up_Distractor.gif"",""img/Fire_Up_Distractor.gif"",""img/Fire_Up_Distractor.gif"",""img/Fire_Up_Distractor.gif"",""img/Fire_Up_Distractor.gif"",""img/Fire_Up_Distractor.gif"",""img/Fire_Up_Distractor.gif"",""img/Fire_Up_Distractor.gif"",""img/Fire_Up_Distractor.gif"",""img/Fire_Up_Distractor.gif"",""img/Fire_Up_Distractor.gif"",""img/Fire_Up_Distractor.gif""]","8","targetDown_distractorsUp"
"","","","","","html-keyboard-response","56","600306","0.0-14.0-0.0-0.21","603823018fd0a91c7386e2b7","619531dcf66c91622fa1b861","619596b8c45d18f51806a8d7","null","","null","","","","","main_T1_ITI","","","","",""
"","","","","","visual-search-circle","57","608020","0.0-14.0-0.0-1.21","603823018fd0a91c7386e2b7","619531dcf66c91622fa1b861","619596b8c45d18f51806a8d7","6706.4000000059605","","s","true","[[1,268],[123,542],[422,574],[598,331],[476,57],[177,25]]","false","6","main_T2_Trial","s","img/Fire_Up_Target.gif","[""img/Fire_Down_Distractor.gif"",""img/Fire_Down_Distractor.gif"",""img/Fire_Down_Distractor.gif"",""img/Fire_Down_Distractor.gif"",""img/Fire_Down_Distractor.gif"",""img/Fire_Down_Distractor.gif"",""img/Fire_Down_Distractor.gif"",""img/Fire_Down_Distractor.gif"",""img/Fire_Down_Distractor.gif"",""img/Fire_Down_Distractor.gif"",""img/Fire_Down_Distractor.gif"",""img/Fire_Down_Distractor.gif""]","6","targetUp_distractorsDown"
"","","","","","html-keyboard-response","58","608023","0.0-14.0-0.0-0.22","603823018fd0a91c7386e2b7","619531dcf66c91622fa1b861","619596b8c45d18f51806a8d7","null","","null","","","","","main_T1_ITI","","","","",""
"","","","","","visual-search-circle","59","616548","0.0-14.0-0.0-1.22","603823018fd0a91c7386e2b7","619531dcf66c91622fa1b861","619596b8c45d18f51806a8d7","7521.0999999940395","","s","true","[[458,45],[200,17],[16,201],[46,460],[267,598],[512,511],[598,265]]","false","7","main_T2_Trial","s","img/Fire_Up_Target.gif","[""img/Fire_Down_Distractor.gif"",""img/Fire_Down_Distractor.gif"",""img/Fire_Down_Distractor.gif"",""img/Fire_Down_Distractor.gif"",""img/Fire_Down_Distractor.gif"",""img/Fire_Down_Distractor.gif"",""img/Fire_Down_Distractor.gif"",""img/Fire_Down_Distractor.gif"",""img/Fire_Down_Distractor.gif"",""img/Fire_Down_Distractor.gif"",""img/Fire_Down_Distractor.gif"",""img/Fire_Down_Distractor.gif""]","7","targetUp_distractorsDown"
"","","","","","html-keyboard-response","60","616550","0.0-14.0-0.0-0.23","603823018fd0a91c7386e2b7","619531dcf66c91622fa1b861","619596b8c45d18f51806a8d7","null","","null","","","","","main_T1_ITI","","","","",""
"","","","","","visual-search-circle","61","623264","0.0-14.0-0.0-1.23","603823018fd0a91c7386e2b7","619531dcf66c91622fa1b861","619596b8c45d18f51806a8d7","5710.399999976158","","d","true","[[599,305],[491,68],[238,6],[32,165],[27,425],[228,591],[482,537]]","true","7","main_T2_Trial","d","img/Fire_Down_Target.gif","[""img/Fire_Up_Distractor.gif"",""img/Fire_Up_Distractor.gif"",""img/Fire_Up_Distractor.gif"",""img/Fire_Up_Distractor.gif"",""img/Fire_Up_Distractor.gif"",""img/Fire_Up_Distractor.gif"",""img/Fire_Up_Distractor.gif"",""img/Fire_Up_Distractor.gif"",""img/Fire_Up_Distractor.gif"",""img/Fire_Up_Distractor.gif"",""img/Fire_Up_Distractor.gif"",""img/Fire_Up_Distractor.gif""]","7","targetDown_distractorsUp"
"","","","","","html-keyboard-response","62","623496","0.0-14.0-0.0-0.24","603823018fd0a91c7386e2b7","619531dcf66c91622fa1b861","619596b8c45d18f51806a8d7","null","","null","","","","","main_T1_ITI","","","","",""
"","","","","","visual-search-circle","63","633233","0.0-14.0-0.0-1.24","603823018fd0a91c7386e2b7","619531dcf66c91622fa1b861","619596b8c45d18f51806a8d7","8733.300000011921","","d","true","[[54,127],[127,545],[545,472],[472,54]]","true","4","main_T2_Trial","d","img/Fire_Up_Target.gif","[""img/Fire_Down_Distractor.gif"",""img/Fire_Down_Distractor.gif"",""img/Fire_Down_Distractor.gif"",""img/Fire_Down_Distractor.gif"",""img/Fire_Down_Distractor.gif"",""img/Fire_Down_Distractor.gif"",""img/Fire_Down_Distractor.gif"",""img/Fire_Down_Distractor.gif"",""img/Fire_Down_Distractor.gif"",""img/Fire_Down_Distractor.gif"",""img/Fire_Down_Distractor.gif"",""img/Fire_Down_Distractor.gif""]","4","targetUp_distractorsDown"
"","","","","","html-keyboard-response","64","633235","0.0-14.0-0.0-0.25","603823018fd0a91c7386e2b7","619531dcf66c91622fa1b861","619596b8c45d18f51806a8d7","null","","null","","","","","main_T1_ITI","","","","",""
"","","","","","visual-search-circle","65","637084","0.0-14.0-0.0-1.25","603823018fd0a91c7386e2b7","619531dcf66c91622fa1b861","619596b8c45d18f51806a8d7","2845.0999999940395","","s","true","[[440,35],[91,84],[30,431],[341,597],[595,352]]","false","5","main_T2_Trial","s","img/Fire_Up_Target.gif","[""img/Fire_Down_Distractor.gif"",""img/Fire_Down_Distractor.gif"",""img/Fire_Down_Distractor.gif"",""img/Fire_Down_Distractor.gif"",""img/Fire_Down_Distractor.gif"",""img/Fire_Down_Distractor.gif"",""img/Fire_Down_Distractor.gif"",""img/Fire_Down_Distractor.gif"",""img/Fire_Down_Distractor.gif"",""img/Fire_Down_Distractor.gif"",""img/Fire_Down_Distractor.gif"",""img/Fire_Down_Distractor.gif""]","5","targetUp_distractorsDown"
"","","","","","html-keyboard-response","66","637086","0.0-14.0-0.0-0.26","603823018fd0a91c7386e2b7","619531dcf66c91622fa1b861","619596b8c45d18f51806a8d7","null","","null","","","","","main_T1_ITI","","","","",""
"","","","","","visual-search-circle","67","654619","0.0-14.0-0.0-1.26","603823018fd0a91c7386e2b7","619531dcf66c91622fa1b861","619596b8c45d18f51806a8d7","16530.90000000596","","s","false","[[500,522],[574,177],[268,1],[6,237],[150,559]]","true","5","main_T2_Trial","d","img/Fire_Down_Target.gif","[""img/Fire_Up_Distractor.gif"",""img/Fire_Up_Distractor.gif"",""img/Fire_Up_Distractor.gif"",""img/Fire_Up_Distractor.gif"",""img/Fire_Up_Distractor.gif"",""img/Fire_Up_Distractor.gif"",""img/Fire_Up_Distractor.gif"",""img/Fire_Up_Distractor.gif"",""img/Fire_Up_Distractor.gif"",""img/Fire_Up_Distractor.gif"",""img/Fire_Up_Distractor.gif"",""img/Fire_Up_Distractor.gif""]","5","targetDown_distractorsUp"
"","","","","","html-keyboard-response","68","654622","0.0-14.0-0.0-0.27","603823018fd0a91c7386e2b7","619531dcf66c91622fa1b861","619596b8c45d18f51806a8d7","null","","null","","","","","main_T1_ITI","","","","",""
"","","","","","visual-search-circle","69","659838","0.0-14.0-0.0-1.27","603823018fd0a91c7386e2b7","619531dcf66c91622fa1b861","619596b8c45d18f51806a8d7","4200.4000000059605","","s","true","[[585,392],[522,99],[237,6],[14,207],[77,500],[362,593]]","false","6","main_T2_Trial","s","img/Fire_Up_Target.gif","[""img/Fire_Down_Distractor.gif"",""img/Fire_Down_Distractor.gif"",""img/Fire_Down_Distractor.gif"",""img/Fire_Down_Distractor.gif"",""img/Fire_Down_Distractor.gif"",""img/Fire_Down_Distractor.gif"",""img/Fire_Down_Distractor.gif"",""img/Fire_Down_Distractor.gif"",""img/Fire_Down_Distractor.gif"",""img/Fire_Down_Distractor.gif"",""img/Fire_Down_Distractor.gif"",""img/Fire_Down_Distractor.gif""]","6","targetUp_distractorsDown"
"","","","","","html-keyboard-response","70","659841","0.0-14.0-0.0-0.28","603823018fd0a91c7386e2b7","619531dcf66c91622fa1b861","619596b8c45d18f51806a8d7","null","","null","","","","","main_T1_ITI","","","","",""
"","","","","","visual-search-circle","71","663087","0.0-14.0-0.0-1.28","603823018fd0a91c7386e2b7","619531dcf66c91622fa1b861","619596b8c45d18f51806a8d7","2243.600000023842","","d","true","[[557,454],[454,42],[42,145],[145,557]]","true","4","main_T2_Trial","d","img/Fire_Down_Target.gif","[""img/Fire_Up_Distractor.gif"",""img/Fire_Up_Distractor.gif"",""img/Fire_Up_Distractor.gif"",""img/Fire_Up_Distractor.gif"",""img/Fire_Up_Distractor.gif"",""img/Fire_Up_Distractor.gif"",""img/Fire_Up_Distractor.gif"",""img/Fire_Up_Distractor.gif"",""img/Fire_Up_Distractor.gif"",""img/Fire_Up_Distractor.gif"",""img/Fire_Up_Distractor.gif"",""img/Fire_Up_Distractor.gif""]","4","targetDown_distractorsUp"
"","","","","","html-keyboard-response","72","663090","0.0-14.0-0.0-0.29","603823018fd0a91c7386e2b7","619531dcf66c91622fa1b861","619596b8c45d18f51806a8d7","null","","null","","","","","main_T1_ITI","","","","",""
"","","","","","visual-search-circle","73","673740","0.0-14.0-0.0-1.29","603823018fd0a91c7386e2b7","619531dcf66c91622fa1b861","619596b8c45d18f51806a8d7","9633.800000011921","","d","true","[[526,496],[595,245],[441,35],[181,24],[10,220],[57,476],[287,599]]","true","7","main_T2_Trial","d","img/Fire_Down_Target.gif","[""img/Fire_Up_Distractor.gif"",""img/Fire_Up_Distractor.gif"",""img/Fire_Up_Distractor.gif"",""img/Fire_Up_Distractor.gif"",""img/Fire_Up_Distractor.gif"",""img/Fire_Up_Distractor.gif"",""img/Fire_Up_Distractor.gif"",""img/Fire_Up_Distractor.gif"",""img/Fire_Up_Distractor.gif"",""img/Fire_Up_Distractor.gif"",""img/Fire_Up_Distractor.gif"",""img/Fire_Up_Distractor.gif""]","7","targetDown_distractorsUp"
"","","","","","html-keyboard-response","74","673743","0.0-14.0-0.0-0.30","603823018fd0a91c7386e2b7","619531dcf66c91622fa1b861","619596b8c45d18f51806a8d7","null","","null","","","","","main_T1_ITI","","","","",""
"","","","","","visual-search-circle","75","685041","0.0-14.0-0.0-1.30","603823018fd0a91c7386e2b7","619531dcf66c91622fa1b861","619596b8c45d18f51806a8d7","10294.699999988079","","d","true","[[598,268],[461,47],[203,16],[17,198],[44,457],[264,597],[510,513]]","true","7","main_T2_Trial","d","img/Fire_Up_Target.gif","[""img/Fire_Down_Distractor.gif"",""img/Fire_Down_Distractor.gif"",""img/Fire_Down_Distractor.gif"",""img/Fire_Down_Distractor.gif"",""img/Fire_Down_Distractor.gif"",""img/Fire_Down_Distractor.gif"",""img/Fire_Down_Distractor.gif"",""img/Fire_Down_Distractor.gif"",""img/Fire_Down_Distractor.gif"",""img/Fire_Down_Distractor.gif"",""img/Fire_Down_Distractor.gif"",""img/Fire_Down_Distractor.gif""]","7","targetUp_distractorsDown"
"","","","","","html-keyboard-response","76","685044","0.0-14.0-0.0-0.31","603823018fd0a91c7386e2b7","619531dcf66c91622fa1b861","619596b8c45d18f51806a8d7","null","","null","","","","","main_T1_ITI","","","","",""
"","","","","","visual-search-circle","77","689950","0.0-14.0-0.0-1.31","603823018fd0a91c7386e2b7","619531dcf66c91622fa1b861","619596b8c45d18f51806a8d7","3887.9000000059605","","s","true","[[0,305],[91,515],[305,599],[515,508],[599,294],[508,84],[294,0],[84,91]]","false","8","main_T2_Trial","s","img/Fire_Up_Target.gif","[""img/Fire_Down_Distractor.gif"",""img/Fire_Down_Distractor.gif"",""img/Fire_Down_Distractor.gif"",""img/Fire_Down_Distractor.gif"",""img/Fire_Down_Distractor.gif"",""img/Fire_Down_Distractor.gif"",""img/Fire_Down_Distractor.gif"",""img/Fire_Down_Distractor.gif"",""img/Fire_Down_Distractor.gif"",""img/Fire_Down_Distractor.gif"",""img/Fire_Down_Distractor.gif"",""img/Fire_Down_Distractor.gif""]","8","targetUp_distractorsDown"
"","","","","","html-keyboard-response","78","689952","0.0-14.0-0.0-0.32","603823018fd0a91c7386e2b7","619531dcf66c91622fa1b861","619596b8c45d18f51806a8d7","null","","null","","","","","main_T1_ITI","","","","",""
"","","","","","visual-search-circle","79","698590","0.0-14.0-0.0-1.32","603823018fd0a91c7386e2b7","619531dcf66c91622fa1b861","619596b8c45d18f51806a8d7","7634.799999982119","","d","true","[[402,18],[107,70],[4,352],[197,581],[492,529],[595,247]]","true","6","main_T2_Trial","d","img/Fire_Up_Target.gif","[""img/Fire_Down_Distractor.gif"",""img/Fire_Down_Distractor.gif"",""img/Fire_Down_Distractor.gif"",""img/Fire_Down_Distractor.gif"",""img/Fire_Down_Distractor.gif"",""img/Fire_Down_Distractor.gif"",""img/Fire_Down_Distractor.gif"",""img/Fire_Down_Distractor.gif"",""img/Fire_Down_Distractor.gif"",""img/Fire_Down_Distractor.gif"",""img/Fire_Down_Distractor.gif"",""img/Fire_Down_Distractor.gif""]","6","targetUp_distractorsDown"
"","","","","","html-keyboard-response","80","698592","0.0-14.0-0.0-0.33","603823018fd0a91c7386e2b7","619531dcf66c91622fa1b861","619596b8c45d18f51806a8d7","null","","null","","","","","main_T1_ITI","","","","",""
"","","","","","visual-search-circle","81","705030","0.0-14.0-0.0-1.33","603823018fd0a91c7386e2b7","619531dcf66c91622fa1b861","619596b8c45d18f51806a8d7","5434.100000023842","","s","true","[[23,182],[60,480],[336,597],[576,417],[539,119],[263,2]]","false","6","main_T2_Trial","s","img/Fire_Down_Target.gif","[""img/Fire_Up_Distractor.gif"",""img/Fire_Up_Distractor.gif"",""img/Fire_Up_Distractor.gif"",""img/Fire_Up_Distractor.gif"",""img/Fire_Up_Distractor.gif"",""img/Fire_Up_Distractor.gif"",""img/Fire_Up_Distractor.gif"",""img/Fire_Up_Distractor.gif"",""img/Fire_Up_Distractor.gif"",""img/Fire_Up_Distractor.gif"",""img/Fire_Up_Distractor.gif"",""img/Fire_Up_Distractor.gif""]","6","targetDown_distractorsUp"
"","","","","","html-keyboard-response","82","705032","0.0-14.0-0.0-0.34","603823018fd0a91c7386e2b7","619531dcf66c91622fa1b861","619596b8c45d18f51806a8d7","null","","null","","","","","main_T1_ITI","","","","",""
"","","","","","visual-search-circle","83","708703","0.0-14.0-0.0-1.34","603823018fd0a91c7386e2b7","619531dcf66c91622fa1b861","619596b8c45d18f51806a8d7","2667.5","","s","true","[[154,562],[504,519],[571,173],[263,2],[5,242]]","false","5","main_T2_Trial","s","img/Fire_Up_Target.gif","[""img/Fire_Down_Distractor.gif"",""img/Fire_Down_Distractor.gif"",""img/Fire_Down_Distractor.gif"",""img/Fire_Down_Distractor.gif"",""img/Fire_Down_Distractor.gif"",""img/Fire_Down_Distractor.gif"",""img/Fire_Down_Distractor.gif"",""img/Fire_Down_Distractor.gif"",""img/Fire_Down_Distractor.gif"",""img/Fire_Down_Distractor.gif"",""img/Fire_Down_Distractor.gif"",""img/Fire_Down_Distractor.gif""]","5","targetUp_distractorsDown"
"","","","","","html-keyboard-response","84","708705","0.0-14.0-0.0-0.35","603823018fd0a91c7386e2b7","619531dcf66c91622fa1b861","619596b8c45d18f51806a8d7","null","","null","","","","","main_T1_ITI","","","","",""
"","","","","","visual-search-circle","85","711670","0.0-14.0-0.0-1.35","603823018fd0a91c7386e2b7","619531dcf66c91622fa1b861","619596b8c45d18f51806a8d7","1962.5","","d","true","[[48,463],[377,589],[599,315],[407,19],[66,111]]","true","5","main_T2_Trial","d","img/Fire_Up_Target.gif","[""img/Fire_Down_Distractor.gif"",""img/Fire_Down_Distractor.gif"",""img/Fire_Down_Distractor.gif"",""img/Fire_Down_Distractor.gif"",""img/Fire_Down_Distractor.gif"",""img/Fire_Down_Distractor.gif"",""img/Fire_Down_Distractor.gif"",""img/Fire_Down_Distractor.gif"",""img/Fire_Down_Distractor.gif"",""img/Fire_Down_Distractor.gif"",""img/Fire_Down_Distractor.gif"",""img/Fire_Down_Distractor.gif""]","5","targetUp_distractorsDown"
"","","","","","html-keyboard-response","86","711672","0.0-14.0-0.0-0.36","603823018fd0a91c7386e2b7","619531dcf66c91622fa1b861","619596b8c45d18f51806a8d7","null","","null","","","","","main_T1_ITI","","","","",""
"","","","","","visual-search-circle","87","717966","0.0-14.0-0.0-1.36","603823018fd0a91c7386e2b7","619531dcf66c91622fa1b861","619596b8c45d18f51806a8d7","5290.0999999940395","","s","true","[[562,154],[349,4],[99,76],[0,317],[126,544],[383,588],[577,414]]","false","7","main_T2_Trial","s","img/Fire_Down_Target.gif","[""img/Fire_Up_Distractor.gif"",""img/Fire_Up_Distractor.gif"",""img/Fire_Up_Distractor.gif"",""img/Fire_Up_Distractor.gif"",""img/Fire_Up_Distractor.gif"",""img/Fire_Up_Distractor.gif"",""img/Fire_Up_Distractor.gif"",""img/Fire_Up_Distractor.gif"",""img/Fire_Up_Distractor.gif"",""img/Fire_Up_Distractor.gif"",""img/Fire_Up_Distractor.gif"",""img/Fire_Up_Distractor.gif""]","7","targetDown_distractorsUp"
"","","","","","html-keyboard-response","88","717969","0.0-14.0-0.0-0.37","603823018fd0a91c7386e2b7","619531dcf66c91622fa1b861","619596b8c45d18f51806a8d7","null","","null","","","","","main_T1_ITI","","","","",""
"","","","","","visual-search-circle","89","724808","0.0-14.0-0.0-1.37","603823018fd0a91c7386e2b7","619531dcf66c91622fa1b861","619596b8c45d18f51806a8d7","5827","","s","false","[[562,445],[588,217],[445,37],[217,11],[37,154],[11,382],[154,562],[382,588]]","true","8","main_T2_Trial","d","img/Fire_Up_Target.gif","[""img/Fire_Down_Distractor.gif"",""img/Fire_Down_Distractor.gif"",""img/Fire_Down_Distractor.gif"",""img/Fire_Down_Distractor.gif"",""img/Fire_Down_Distractor.gif"",""img/Fire_Down_Distractor.gif"",""img/Fire_Down_Distractor.gif"",""img/Fire_Down_Distractor.gif"",""img/Fire_Down_Distractor.gif"",""img/Fire_Down_Distractor.gif"",""img/Fire_Down_Distractor.gif"",""img/Fire_Down_Distractor.gif""]","8","targetUp_distractorsDown"
"","","","","","html-keyboard-response","90","724810","0.0-14.0-0.0-0.38","603823018fd0a91c7386e2b7","619531dcf66c91622fa1b861","619596b8c45d18f51806a8d7","null","","null","","","","","main_T1_ITI","","","","",""
"","","","","","visual-search-circle","91","741656","0.0-14.0-0.0-1.38","603823018fd0a91c7386e2b7","619531dcf66c91622fa1b861","619596b8c45d18f51806a8d7","15843.09999999404","","s","true","[[597,263],[417,23],[119,60],[2,336],[182,576],[480,539]]","false","6","main_T2_Trial","s","img/Fire_Down_Target.gif","[""img/Fire_Up_Distractor.gif"",""img/Fire_Up_Distractor.gif"",""img/Fire_Up_Distractor.gif"",""img/Fire_Up_Distractor.gif"",""img/Fire_Up_Distractor.gif"",""img/Fire_Up_Distractor.gif"",""img/Fire_Up_Distractor.gif"",""img/Fire_Up_Distractor.gif"",""img/Fire_Up_Distractor.gif"",""img/Fire_Up_Distractor.gif"",""img/Fire_Up_Distractor.gif"",""img/Fire_Up_Distractor.gif""]","6","targetDown_distractorsUp"
"","","","","","html-keyboard-response","92","744481","0.0-14.0-0.0-0.39","603823018fd0a91c7386e2b7","619531dcf66c91622fa1b861","619596b8c45d18f51806a8d7","2824.699999988079","Wow! You've completed 40 out of 160 trials! </p> <p>  </p><p> Take a quick break, then press any key when you're ready to continue.","s","","","","","main_T1_ITI","","","","",""
"","","","","","visual-search-circle","93","748586","0.0-14.0-0.0-1.39","603823018fd0a91c7386e2b7","619531dcf66c91622fa1b861","619596b8c45d18f51806a8d7","3102.4000000059605","","d","true","[[51,132],[132,548],[548,467],[467,51]]","true","4","main_T2_Trial","d","img/Fire_Down_Target.gif","[""img/Fire_Up_Distractor.gif"",""img/Fire_Up_Distractor.gif"",""img/Fire_Up_Distractor.gif"",""img/Fire_Up_Distractor.gif"",""img/Fire_Up_Distractor.gif"",""img/Fire_Up_Distractor.gif"",""img/Fire_Up_Distractor.gif"",""img/Fire_Up_Distractor.gif"",""img/Fire_Up_Distractor.gif"",""img/Fire_Up_Distractor.gif"",""img/Fire_Up_Distractor.gif"",""img/Fire_Up_Distractor.gif""]","4","targetDown_distractorsUp"
"","","","","","html-keyboard-response","94","748592","0.0-14.0-0.0-0.40","603823018fd0a91c7386e2b7","619531dcf66c91622fa1b861","619596b8c45d18f51806a8d7","null","","null","","","","","main_T1_ITI","","","","",""
"","","","","","visual-search-circle","95","756872","0.0-14.0-0.0-1.40","603823018fd0a91c7386e2b7","619531dcf66c91622fa1b861","619596b8c45d18f51806a8d7","7274.4000000059605","","s","true","[[207,14],[32,163],[14,392],[163,567],[392,585],[567,436],[585,207],[436,32]]","false","8","main_T2_Trial","s","img/Fire_Up_Target.gif","[""img/Fire_Down_Distractor.gif"",""img/Fire_Down_Distractor.gif"",""img/Fire_Down_Distractor.gif"",""img/Fire_Down_Distractor.gif"",""img/Fire_Down_Distractor.gif"",""img/Fire_Down_Distractor.gif"",""img/Fire_Down_Distractor.gif"",""img/Fire_Down_Distractor.gif"",""img/Fire_Down_Distractor.gif"",""img/Fire_Down_Distractor.gif"",""img/Fire_Down_Distractor.gif"",""img/Fire_Down_Distractor.gif""]","8","targetUp_distractorsDown"
"","","","","","html-keyboard-response","96","756875","0.0-14.0-0.0-0.41","603823018fd0a91c7386e2b7","619531dcf66c91622fa1b861","619596b8c45d18f51806a8d7","null","","null","","","","","main_T1_ITI","","","","",""
"","","","","","visual-search-circle","97","764360","0.0-14.0-0.0-1.41","603823018fd0a91c7386e2b7","619531dcf66c91622fa1b861","619596b8c45d18f51806a8d7","6481.5","","s","true","[[407,19],[111,66],[3,346],[192,580],[488,533],[596,253]]","false","6","main_T2_Trial","s","img/Fire_Down_Target.gif","[""img/Fire_Up_Distractor.gif"",""img/Fire_Up_Distractor.gif"",""img/Fire_Up_Distractor.gif"",""img/Fire_Up_Distractor.gif"",""img/Fire_Up_Distractor.gif"",""img/Fire_Up_Distractor.gif"",""img/Fire_Up_Distractor.gif"",""img/Fire_Up_Distractor.gif"",""img/Fire_Up_Distractor.gif"",""img/Fire_Up_Distractor.gif"",""img/Fire_Up_Distractor.gif"",""img/Fire_Up_Distractor.gif""]","6","targetDown_distractorsUp"
"","","","","","html-keyboard-response","98","764363","0.0-14.0-0.0-0.42","603823018fd0a91c7386e2b7","619531dcf66c91622fa1b861","619596b8c45d18f51806a8d7","null","","null","","","","","main_T1_ITI","","","","",""
"","","","","","visual-search-circle","99","772057","0.0-14.0-0.0-1.42","603823018fd0a91c7386e2b7","619531dcf66c91622fa1b861","619596b8c45d18f51806a8d7","6690.600000023842","","s","false","[[66,488],[346,596],[580,407],[533,111],[253,3],[19,192]]","true","6","main_T2_Trial","d","img/Fire_Up_Target.gif","[""img/Fire_Down_Distractor.gif"",""img/Fire_Down_Distractor.gif"",""img/Fire_Down_Distractor.gif"",""img/Fire_Down_Distractor.gif"",""img/Fire_Down_Distractor.gif"",""img/Fire_Down_Distractor.gif"",""img/Fire_Down_Distractor.gif"",""img/Fire_Down_Distractor.gif"",""img/Fire_Down_Distractor.gif"",""img/Fire_Down_Distractor.gif"",""img/Fire_Down_Distractor.gif"",""img/Fire_Down_Distractor.gif""]","6","targetUp_distractorsDown"
"","","","","","html-keyboard-response","100","772059","0.0-14.0-0.0-0.43","603823018fd0a91c7386e2b7","619531dcf66c91622fa1b861","619596b8c45d18f51806a8d7","null","","null","","","","","main_T1_ITI","","","","",""
"","","","","","visual-search-circle","101","780125","0.0-14.0-0.0-1.43","603823018fd0a91c7386e2b7","619531dcf66c91622fa1b861","619596b8c45d18f51806a8d7","7063.699999988079","","d","true","[[598,273],[273,1],[1,326],[326,598]]","true","4","main_T2_Trial","d","img/Fire_Up_Target.gif","[""img/Fire_Down_Distractor.gif"",""img/Fire_Down_Distractor.gif"",""img/Fire_Down_Distractor.gif"",""img/Fire_Down_Distractor.gif"",""img/Fire_Down_Distractor.gif"",""img/Fire_Down_Distractor.gif"",""img/Fire_Down_Distractor.gif"",""img/Fire_Down_Distractor.gif"",""img/Fire_Down_Distractor.gif"",""img/Fire_Down_Distractor.gif"",""img/Fire_Down_Distractor.gif"",""img/Fire_Down_Distractor.gif""]","4","targetUp_distractorsDown"
"","","","","","html-keyboard-response","102","780128","0.0-14.0-0.0-0.44","603823018fd0a91c7386e2b7","619531dcf66c91622fa1b861","619596b8c45d18f51806a8d7","null","","null","","","","","main_T1_ITI","","","","",""
"","","","","","visual-search-circle","103","783930","0.0-14.0-0.0-1.44","603823018fd0a91c7386e2b7","619531dcf66c91622fa1b861","619596b8c45d18f51806a8d7","2799","","s","true","[[163,32],[3,346],[253,596],[567,436],[512,87]]","false","5","main_T2_Trial","s","img/Fire_Up_Target.gif","[""img/Fire_Down_Distractor.gif"",""img/Fire_Down_Distractor.gif"",""img/Fire_Down_Distractor.gif"",""img/Fire_Down_Distractor.gif"",""img/Fire_Down_Distractor.gif"",""img/Fire_Down_Distractor.gif"",""img/Fire_Down_Distractor.gif"",""img/Fire_Down_Distractor.gif"",""img/Fire_Down_Distractor.gif"",""img/Fire_Down_Distractor.gif"",""img/Fire_Down_Distractor.gif"",""img/Fire_Down_Distractor.gif""]","5","targetUp_distractorsDown"
"","","","","","html-keyboard-response","104","783932","0.0-14.0-0.0-0.45","603823018fd0a91c7386e2b7","619531dcf66c91622fa1b861","619596b8c45d18f51806a8d7","null","","null","","","","","main_T1_ITI","","","","",""
"","","","","","visual-search-circle","105","789414","0.0-14.0-0.0-1.45","603823018fd0a91c7386e2b7","619531dcf66c91622fa1b861","619596b8c45d18f51806a8d7","4476.799999982119","","s","true","[[1,331],[111,533],[331,598],[533,488],[598,268],[488,66],[268,1],[66,111]]","false","8","main_T2_Trial","s","img/Fire_Down_Target.gif","[""img/Fire_Up_Distractor.gif"",""img/Fire_Up_Distractor.gif"",""img/Fire_Up_Distractor.gif"",""img/Fire_Up_Distractor.gif"",""img/Fire_Up_Distractor.gif"",""img/Fire_Up_Distractor.gif"",""img/Fire_Up_Distractor.gif"",""img/Fire_Up_Distractor.gif"",""img/Fire_Up_Distractor.gif"",""img/Fire_Up_Distractor.gif"",""img/Fire_Up_Distractor.gif"",""img/Fire_Up_Distractor.gif""]","8","targetDown_distractorsUp"
"","","","","","html-keyboard-response","106","789416","0.0-14.0-0.0-0.46","603823018fd0a91c7386e2b7","619531dcf66c91622fa1b861","619596b8c45d18f51806a8d7","null","","null","","","","","main_T1_ITI","","","","",""
"","","","","","visual-search-circle","107","795675","0.0-14.0-0.0-1.46","603823018fd0a91c7386e2b7","619531dcf66c91622fa1b861","619596b8c45d18f51806a8d7","5256","","s","true","[[37,154],[80,504],[426,571],[597,263],[357,5]]","false","5","main_T2_Trial","s","img/Fire_Down_Target.gif","[""img/Fire_Up_Distractor.gif"",""img/Fire_Up_Distractor.gif"",""img/Fire_Up_Distractor.gif"",""img/Fire_Up_Distractor.gif"",""img/Fire_Up_Distractor.gif"",""img/Fire_Up_Distractor.gif"",""img/Fire_Up_Distractor.gif"",""img/Fire_Up_Distractor.gif"",""img/Fire_Up_Distractor.gif"",""img/Fire_Up_Distractor.gif"",""img/Fire_Up_Distractor.gif"",""img/Fire_Up_Distractor.gif""]","5","targetDown_distractorsUp"
"","","","","","html-keyboard-response","108","795677","0.0-14.0-0.0-0.47","603823018fd0a91c7386e2b7","619531dcf66c91622fa1b861","619596b8c45d18f51806a8d7","null","","null","","","","","main_T1_ITI","","","","",""
"","","","","","visual-search-circle","109","799155","0.0-14.0-0.0-1.47","603823018fd0a91c7386e2b7","619531dcf66c91622fa1b861","619596b8c45d18f51806a8d7","2474.2999999821186","","s","true","[[19,192],[192,580],[580,407],[407,19]]","false","4","main_T2_Trial","s","img/Fire_Down_Target.gif","[""img/Fire_Up_Distractor.gif"",""img/Fire_Up_Distractor.gif"",""img/Fire_Up_Distractor.gif"",""img/Fire_Up_Distractor.gif"",""img/Fire_Up_Distractor.gif"",""img/Fire_Up_Distractor.gif"",""img/Fire_Up_Distractor.gif"",""img/Fire_Up_Distractor.gif"",""img/Fire_Up_Distractor.gif"",""img/Fire_Up_Distractor.gif"",""img/Fire_Up_Distractor.gif"",""img/Fire_Up_Distractor.gif""]","4","targetDown_distractorsUp"
"","","","","","html-keyboard-response","110","799158","0.0-14.0-0.0-0.48","603823018fd0a91c7386e2b7","619531dcf66c91622fa1b861","619596b8c45d18f51806a8d7","null","","null","","","","","main_T1_ITI","","","","",""
"","","","","","visual-search-circle","111","802696","0.0-14.0-0.0-1.48","603823018fd0a91c7386e2b7","619531dcf66c91622fa1b861","619596b8c45d18f51806a8d7","2535.2999999821186","","d","true","[[586,212],[305,0],[16,202],[119,539],[472,545]]","true","5","main_T2_Trial","d","img/Fire_Down_Target.gif","[""img/Fire_Up_Distractor.gif"",""img/Fire_Up_Distractor.gif"",""img/Fire_Up_Distractor.gif"",""img/Fire_Up_Distractor.gif"",""img/Fire_Up_Distractor.gif"",""img/Fire_Up_Distractor.gif"",""img/Fire_Up_Distractor.gif"",""img/Fire_Up_Distractor.gif"",""img/Fire_Up_Distractor.gif"",""img/Fire_Up_Distractor.gif"",""img/Fire_Up_Distractor.gif"",""img/Fire_Up_Distractor.gif""]","5","targetDown_distractorsUp"
"","","","","","html-keyboard-response","112","802699","0.0-14.0-0.0-0.49","603823018fd0a91c7386e2b7","619531dcf66c91622fa1b861","619596b8c45d18f51806a8d7","null","","null","","","","","main_T1_ITI","","","","",""
"","","","","","visual-search-circle","113","808941","0.0-14.0-0.0-1.49","603823018fd0a91c7386e2b7","619531dcf66c91622fa1b861","619596b8c45d18f51806a8d7","5237.300000011921","","s","true","[[11,217],[84,508],[372,591],[588,382],[515,91],[227,8]]","false","6","main_T2_Trial","s","img/Fire_Down_Target.gif","[""img/Fire_Up_Distractor.gif"",""img/Fire_Up_Distractor.gif"",""img/Fire_Up_Distractor.gif"",""img/Fire_Up_Distractor.gif"",""img/Fire_Up_Distractor.gif"",""img/Fire_Up_Distractor.gif"",""img/Fire_Up_Distractor.gif"",""img/Fire_Up_Distractor.gif"",""img/Fire_Up_Distractor.gif"",""img/Fire_Up_Distractor.gif"",""img/Fire_Up_Distractor.gif"",""img/Fire_Up_Distractor.gif""]","6","targetDown_distractorsUp"
"","","","","","html-keyboard-response","114","808943","0.0-14.0-0.0-0.50","603823018fd0a91c7386e2b7","619531dcf66c91622fa1b861","619596b8c45d18f51806a8d7","null","","null","","","","","main_T1_ITI","","","","",""
"","","","","","visual-search-circle","115","814432","0.0-14.0-0.0-1.50","603823018fd0a91c7386e2b7","619531dcf66c91622fa1b861","619596b8c45d18f51806a8d7","4485","","d","true","[[596,253],[476,57],[253,3],[57,123],[3,346],[123,542],[346,596],[542,476]]","true","8","main_T2_Trial","d","img/Fire_Up_Target.gif","[""img/Fire_Down_Distractor.gif"",""img/Fire_Down_Distractor.gif"",""img/Fire_Down_Distractor.gif"",""img/Fire_Down_Distractor.gif"",""img/Fire_Down_Distractor.gif"",""img/Fire_Down_Distractor.gif"",""img/Fire_Down_Distractor.gif"",""img/Fire_Down_Distractor.gif"",""img/Fire_Down_Distractor.gif"",""img/Fire_Down_Distractor.gif"",""img/Fire_Down_Distractor.gif"",""img/Fire_Down_Distractor.gif""]","8","targetUp_distractorsDown"
"","","","","","html-keyboard-response","116","814435","0.0-14.0-0.0-0.51","603823018fd0a91c7386e2b7","619531dcf66c91622fa1b861","619596b8c45d18f51806a8d7","null","","null","","","","","main_T1_ITI","","","","",""
"","","","","","visual-search-circle","117","818255","0.0-14.0-0.0-1.51","603823018fd0a91c7386e2b7","619531dcf66c91622fa1b861","619596b8c45d18f51806a8d7","2815.9000000059605","","d","true","[[19,192],[41,451],[257,596],[505,518],[598,275],[467,50],[209,13]]","true","7","main_T2_Trial","d","img/Fire_Down_Target.gif","[""img/Fire_Up_Distractor.gif"",""img/Fire_Up_Distractor.gif"",""img/Fire_Up_Distractor.gif"",""img/Fire_Up_Distractor.gif"",""img/Fire_Up_Distractor.gif"",""img/Fire_Up_Distractor.gif"",""img/Fire_Up_Distractor.gif"",""img/Fire_Up_Distractor.gif"",""img/Fire_Up_Distractor.gif"",""img/Fire_Up_Distractor.gif"",""img/Fire_Up_Distractor.gif"",""img/Fire_Up_Distractor.gif""]","7","targetDown_distractorsUp"
"","","","","","html-keyboard-response","118","818259","0.0-14.0-0.0-0.52","603823018fd0a91c7386e2b7","619531dcf66c91622fa1b861","619596b8c45d18f51806a8d7","null","","null","","","","","main_T1_ITI","","","","",""
"","","","","","visual-search-circle","119","821755","0.0-14.0-0.0-1.52","603823018fd0a91c7386e2b7","619531dcf66c91622fa1b861","619596b8c45d18f51806a8d7","2494.5","","s","true","[[599,279],[372,8],[45,141],[70,492],[412,578]]","false","5","main_T2_Trial","s","img/Fire_Down_Target.gif","[""img/Fire_Up_Distractor.gif"",""img/Fire_Up_Distractor.gif"",""img/Fire_Up_Distractor.gif"",""img/Fire_Up_Distractor.gif"",""img/Fire_Up_Distractor.gif"",""img/Fire_Up_Distractor.gif"",""img/Fire_Up_Distractor.gif"",""img/Fire_Up_Distractor.gif"",""img/Fire_Up_Distractor.gif"",""img/Fire_Up_Distractor.gif"",""img/Fire_Up_Distractor.gif"",""img/Fire_Up_Distractor.gif""]","5","targetDown_distractorsUp"
"","","","","","html-keyboard-response","120","821758","0.0-14.0-0.0-0.53","603823018fd0a91c7386e2b7","619531dcf66c91622fa1b861","619596b8c45d18f51806a8d7","null","","null","","","","","main_T1_ITI","","","","",""
"","","","","","visual-search-circle","121","825547","0.0-14.0-0.0-1.53","603823018fd0a91c7386e2b7","619531dcf66c91622fa1b861","619596b8c45d18f51806a8d7","2785.2000000178814","","s","true","[[63,484],[341,597],[578,412],[536,115],[258,2],[21,187]]","false","6","main_T2_Trial","s","img/Fire_Down_Target.gif","[""img/Fire_Up_Distractor.gif"",""img/Fire_Up_Distractor.gif"",""img/Fire_Up_Distractor.gif"",""img/Fire_Up_Distractor.gif"",""img/Fire_Up_Distractor.gif"",""img/Fire_Up_Distractor.gif"",""img/Fire_Up_Distractor.gif"",""img/Fire_Up_Distractor.gif"",""img/Fire_Up_Distractor.gif"",""img/Fire_Up_Distractor.gif"",""img/Fire_Up_Distractor.gif"",""img/Fire_Up_Distractor.gif""]","6","targetDown_distractorsUp"
"","","","","","html-keyboard-response","122","825549","0.0-14.0-0.0-0.54","603823018fd0a91c7386e2b7","619531dcf66c91622fa1b861","619596b8c45d18f51806a8d7","null","","null","","","","","main_T1_ITI","","","","",""
"","","","","","visual-search-circle","123","831095","0.0-14.0-0.0-1.54","603823018fd0a91c7386e2b7","619531dcf66c91622fa1b861","619596b8c45d18f51806a8d7","4543","","s","true","[[588,382],[544,126],[316,0],[76,100],[4,350],[155,562],[415,577]]","false","7","main_T2_Trial","s","img/Fire_Down_Target.gif","[""img/Fire_Up_Distractor.gif"",""img/Fire_Up_Distractor.gif"",""img/Fire_Up_Distractor.gif"",""img/Fire_Up_Distractor.gif"",""img/Fire_Up_Distractor.gif"",""img/Fire_Up_Distractor.gif"",""img/Fire_Up_Distractor.gif"",""img/Fire_Up_Distractor.gif"",""img/Fire_Up_Distractor.gif"",""img/Fire_Up_Distractor.gif"",""img/Fire_Up_Distractor.gif"",""img/Fire_Up_Distractor.gif""]","7","targetDown_distractorsUp"
"","","","","","html-keyboard-response","124","831097","0.0-14.0-0.0-0.55","603823018fd0a91c7386e2b7","619531dcf66c91622fa1b861","619596b8c45d18f51806a8d7","null","","null","","","","","main_T1_ITI","","","","",""
"","","","","","visual-search-circle","125","840545","0.0-14.0-0.0-1.55","603823018fd0a91c7386e2b7","619531dcf66c91622fa1b861","619596b8c45d18f51806a8d7","8443.799999982119","","d","true","[[258,597],[506,517],[598,274],[466,50],[208,14],[19,193],[41,452]]","true","7","main_T2_Trial","d","img/Fire_Up_Target.gif","[""img/Fire_Down_Distractor.gif"",""img/Fire_Down_Distractor.gif"",""img/Fire_Down_Distractor.gif"",""img/Fire_Down_Distractor.gif"",""img/Fire_Down_Distractor.gif"",""img/Fire_Down_Distractor.gif"",""img/Fire_Down_Distractor.gif"",""img/Fire_Down_Distractor.gif"",""img/Fire_Down_Distractor.gif"",""img/Fire_Down_Distractor.gif"",""img/Fire_Down_Distractor.gif"",""img/Fire_Down_Distractor.gif""]","7","targetUp_distractorsDown"
"","","","","","html-keyboard-response","126","840548","0.0-14.0-0.0-0.56","603823018fd0a91c7386e2b7","619531dcf66c91622fa1b861","619596b8c45d18f51806a8d7","null","","null","","","","","main_T1_ITI","","","","",""
"","","","","","visual-search-circle","127","847705","0.0-14.0-0.0-1.56","603823018fd0a91c7386e2b7","619531dcf66c91622fa1b861","619596b8c45d18f51806a8d7","6151.9000000059605","","s","true","[[16,202],[46,460],[267,598],[513,511],[597,264],[458,45],[199,17]]","false","7","main_T2_Trial","s","img/Fire_Down_Target.gif","[""img/Fire_Up_Distractor.gif"",""img/Fire_Up_Distractor.gif"",""img/Fire_Up_Distractor.gif"",""img/Fire_Up_Distractor.gif"",""img/Fire_Up_Distractor.gif"",""img/Fire_Up_Distractor.gif"",""img/Fire_Up_Distractor.gif"",""img/Fire_Up_Distractor.gif"",""img/Fire_Up_Distractor.gif"",""img/Fire_Up_Distractor.gif"",""img/Fire_Up_Distractor.gif"",""img/Fire_Up_Distractor.gif""]","7","targetDown_distractorsUp"
"","","","","","html-keyboard-response","128","847707","0.0-14.0-0.0-0.57","603823018fd0a91c7386e2b7","619531dcf66c91622fa1b861","619596b8c45d18f51806a8d7","null","","null","","","","","main_T1_ITI","","","","",""
"","","","","","visual-search-circle","129","853224","0.0-14.0-0.0-1.57","603823018fd0a91c7386e2b7","619531dcf66c91622fa1b861","619596b8c45d18f51806a8d7","4511.9000000059605","","s","true","[[569,431],[570,171],[368,7],[114,64],[0,298],[111,533],[365,592]]","false","7","main_T2_Trial","s","img/Fire_Up_Target.gif","[""img/Fire_Down_Distractor.gif"",""img/Fire_Down_Distractor.gif"",""img/Fire_Down_Distractor.gif"",""img/Fire_Down_Distractor.gif"",""img/Fire_Down_Distractor.gif"",""img/Fire_Down_Distractor.gif"",""img/Fire_Down_Distractor.gif"",""img/Fire_Down_Distractor.gif"",""img/Fire_Down_Distractor.gif"",""img/Fire_Down_Distractor.gif"",""img/Fire_Down_Distractor.gif"",""img/Fire_Down_Distractor.gif""]","7","targetUp_distractorsDown"
"","","","","","html-keyboard-response","130","853226","0.0-14.0-0.0-0.58","603823018fd0a91c7386e2b7","619531dcf66c91622fa1b861","619596b8c45d18f51806a8d7","null","","null","","","","","main_T1_ITI","","","","",""
"","","","","","visual-search-circle","131","858463","0.0-14.0-0.0-1.58","603823018fd0a91c7386e2b7","619531dcf66c91622fa1b861","619596b8c45d18f51806a8d7","4234.699999988079","","s","true","[[150,40],[40,450],[450,559],[559,150]]","false","4","main_T2_Trial","s","img/Fire_Down_Target.gif","[""img/Fire_Up_Distractor.gif"",""img/Fire_Up_Distractor.gif"",""img/Fire_Up_Distractor.gif"",""img/Fire_Up_Distractor.gif"",""img/Fire_Up_Distractor.gif"",""img/Fire_Up_Distractor.gif"",""img/Fire_Up_Distractor.gif"",""img/Fire_Up_Distractor.gif"",""img/Fire_Up_Distractor.gif"",""img/Fire_Up_Distractor.gif"",""img/Fire_Up_Distractor.gif"",""img/Fire_Up_Distractor.gif""]","4","targetDown_distractorsUp"
"","","","","","html-keyboard-response","132","862484","0.0-14.0-0.0-0.59","603823018fd0a91c7386e2b7","619531dcf66c91622fa1b861","619596b8c45d18f51806a8d7","4020","Wow! You've completed 60 out of 160 trials! </p> <p>  </p><p> Take a quick break, then press any key when you're ready to continue.","s","","","","","main_T1_ITI","","","","",""
"","","","","","visual-search-circle","133","873450","0.0-14.0-0.0-1.59","603823018fd0a91c7386e2b7","619531dcf66c91622fa1b861","619596b8c45d18f51806a8d7","9962.299999982119","","s","true","[[119,539],[417,576],[597,336],[480,60],[182,23],[2,263]]","false","6","main_T2_Trial","s","img/Fire_Down_Target.gif","[""img/Fire_Up_Distractor.gif"",""img/Fire_Up_Distractor.gif"",""img/Fire_Up_Distractor.gif"",""img/Fire_Up_Distractor.gif"",""img/Fire_Up_Distractor.gif"",""img/Fire_Up_Distractor.gif"",""img/Fire_Up_Distractor.gif"",""img/Fire_Up_Distractor.gif"",""img/Fire_Up_Distractor.gif"",""img/Fire_Up_Distractor.gif"",""img/Fire_Up_Distractor.gif"",""img/Fire_Up_Distractor.gif""]","6","targetDown_distractorsUp"
"","","","","","html-keyboard-response","134","873452","0.0-14.0-0.0-0.60","603823018fd0a91c7386e2b7","619531dcf66c91622fa1b861","619596b8c45d18f51806a8d7","null","","null","","","","","main_T1_ITI","","","","",""
"","","","","","visual-search-circle","135","879803","0.0-14.0-0.0-1.60","603823018fd0a91c7386e2b7","619531dcf66c91622fa1b861","619596b8c45d18f51806a8d7","5347.199999988079","","s","true","[[557,454],[591,227],[454,42],[227,8],[42,145],[8,372],[145,557],[372,591]]","false","8","main_T2_Trial","s","img/Fire_Up_Target.gif","[""img/Fire_Down_Distractor.gif"",""img/Fire_Down_Distractor.gif"",""img/Fire_Down_Distractor.gif"",""img/Fire_Down_Distractor.gif"",""img/Fire_Down_Distractor.gif"",""img/Fire_Down_Distractor.gif"",""img/Fire_Down_Distractor.gif"",""img/Fire_Down_Distractor.gif"",""img/Fire_Down_Distractor.gif"",""img/Fire_Down_Distractor.gif"",""img/Fire_Down_Distractor.gif"",""img/Fire_Down_Distractor.gif""]","8","targetUp_distractorsDown"
"","","","","","html-keyboard-response","136","879806","0.0-14.0-0.0-0.61","603823018fd0a91c7386e2b7","619531dcf66c91622fa1b861","619596b8c45d18f51806a8d7","null","","null","","","","","main_T1_ITI","","","","",""
"","","","","","visual-search-circle","137","882571","0.0-14.0-0.0-1.61","603823018fd0a91c7386e2b7","619531dcf66c91622fa1b861","619596b8c45d18f51806a8d7","1762.5","","d","true","[[168,569],[515,508],[564,159],[247,4],[2,258]]","true","5","main_T2_Trial","d","img/Fire_Down_Target.gif","[""img/Fire_Up_Distractor.gif"",""img/Fire_Up_Distractor.gif"",""img/Fire_Up_Distractor.gif"",""img/Fire_Up_Distractor.gif"",""img/Fire_Up_Distractor.gif"",""img/Fire_Up_Distractor.gif"",""img/Fire_Up_Distractor.gif"",""img/Fire_Up_Distractor.gif"",""img/Fire_Up_Distractor.gif"",""img/Fire_Up_Distractor.gif"",""img/Fire_Up_Distractor.gif"",""img/Fire_Up_Distractor.gif""]","5","targetDown_distractorsUp"
"","","","","","html-keyboard-response","138","882572","0.0-14.0-0.0-0.62","603823018fd0a91c7386e2b7","619531dcf66c91622fa1b861","619596b8c45d18f51806a8d7","null","","null","","","","","main_T1_ITI","","","","",""
"","","","","","visual-search-circle","139","888172","0.0-14.0-0.0-1.62","603823018fd0a91c7386e2b7","619531dcf66c91622fa1b861","619596b8c45d18f51806a8d7","4595.5","","s","true","[[567,436],[573,175],[373,9],[118,61],[0,293],[107,530],[360,593]]","false","7","main_T2_Trial","s","img/Fire_Up_Target.gif","[""img/Fire_Down_Distractor.gif"",""img/Fire_Down_Distractor.gif"",""img/Fire_Down_Distractor.gif"",""img/Fire_Down_Distractor.gif"",""img/Fire_Down_Distractor.gif"",""img/Fire_Down_Distractor.gif"",""img/Fire_Down_Distractor.gif"",""img/Fire_Down_Distractor.gif"",""img/Fire_Down_Distractor.gif"",""img/Fire_Down_Distractor.gif"",""img/Fire_Down_Distractor.gif"",""img/Fire_Down_Distractor.gif""]","7","targetUp_distractorsDown"
"","","","","","html-keyboard-response","140","888174","0.0-14.0-0.0-0.63","603823018fd0a91c7386e2b7","619531dcf66c91622fa1b861","619596b8c45d18f51806a8d7","null","","null","","","","","main_T1_ITI","","","","",""
"","","","","","visual-search-circle","141","898458","0.0-14.0-0.0-1.63","603823018fd0a91c7386e2b7","619531dcf66c91622fa1b861","619596b8c45d18f51806a8d7","9279.699999988079","","s","true","[[202,583],[460,553],[598,332],[511,86],[264,2],[45,141],[17,400]]","false","7","main_T2_Trial","s","img/Fire_Up_Target.gif","[""img/Fire_Down_Distractor.gif"",""img/Fire_Down_Distractor.gif"",""img/Fire_Down_Distractor.gif"",""img/Fire_Down_Distractor.gif"",""img/Fire_Down_Distractor.gif"",""img/Fire_Down_Distractor.gif"",""img/Fire_Down_Distractor.gif"",""img/Fire_Down_Distractor.gif"",""img/Fire_Down_Distractor.gif"",""img/Fire_Down_Distractor.gif"",""img/Fire_Down_Distractor.gif"",""img/Fire_Down_Distractor.gif""]","7","targetUp_distractorsDown"
"","","","","","html-keyboard-response","142","898460","0.0-14.0-0.0-0.64","603823018fd0a91c7386e2b7","619531dcf66c91622fa1b861","619596b8c45d18f51806a8d7","null","","null","","","","","main_T1_ITI","","","","",""
"","","","","","visual-search-circle","143","902441","0.0-14.0-0.0-1.64","603823018fd0a91c7386e2b7","619531dcf66c91622fa1b861","619596b8c45d18f51806a8d7","2975.7000000178814","","d","true","[[557,454],[591,227],[454,42],[227,8],[42,145],[8,372],[145,557],[372,591]]","true","8","main_T2_Trial","d","img/Fire_Up_Target.gif","[""img/Fire_Down_Distractor.gif"",""img/Fire_Down_Distractor.gif"",""img/Fire_Down_Distractor.gif"",""img/Fire_Down_Distractor.gif"",""img/Fire_Down_Distractor.gif"",""img/Fire_Down_Distractor.gif"",""img/Fire_Down_Distractor.gif"",""img/Fire_Down_Distractor.gif"",""img/Fire_Down_Distractor.gif"",""img/Fire_Down_Distractor.gif"",""img/Fire_Down_Distractor.gif"",""img/Fire_Down_Distractor.gif""]","8","targetUp_distractorsDown"
"","","","","","html-keyboard-response","144","902442","0.0-14.0-0.0-0.65","603823018fd0a91c7386e2b7","619531dcf66c91622fa1b861","619596b8c45d18f51806a8d7","null","","null","","","","","main_T1_ITI","","","","",""
"","","","","","visual-search-circle","145","909422","0.0-14.0-0.0-1.65","603823018fd0a91c7386e2b7","619531dcf66c91622fa1b861","619596b8c45d18f51806a8d7","5975.600000023842","","d","false","[[341,2],[63,115],[21,412],[258,597],[536,484],[578,187]]","false","6","main_T2_Trial","s","img/Fire_Up_Target.gif","[""img/Fire_Down_Distractor.gif"",""img/Fire_Down_Distractor.gif"",""img/Fire_Down_Distractor.gif"",""img/Fire_Down_Distractor.gif"",""img/Fire_Down_Distractor.gif"",""img/Fire_Down_Distractor.gif"",""img/Fire_Down_Distractor.gif"",""img/Fire_Down_Distractor.gif"",""img/Fire_Down_Distractor.gif"",""img/Fire_Down_Distractor.gif"",""img/Fire_Down_Distractor.gif"",""img/Fire_Down_Distractor.gif""]","6","targetUp_distractorsDown"
"","","","","","html-keyboard-response","146","909423","0.0-14.0-0.0-0.66","603823018fd0a91c7386e2b7","619531dcf66c91622fa1b861","619596b8c45d18f51806a8d7","null","","null","","","","","main_T1_ITI","","","","",""
"","","","","","visual-search-circle","147","913258","0.0-14.0-0.0-1.66","603823018fd0a91c7386e2b7","619531dcf66c91622fa1b861","619596b8c45d18f51806a8d7","2820.800000011921","","s","true","[[237,6],[14,207],[77,500],[362,593],[585,392],[522,99]]","false","6","main_T2_Trial","s","img/Fire_Up_Target.gif","[""img/Fire_Down_Distractor.gif"",""img/Fire_Down_Distractor.gif"",""img/Fire_Down_Distractor.gif"",""img/Fire_Down_Distractor.gif"",""img/Fire_Down_Distractor.gif"",""img/Fire_Down_Distractor.gif"",""img/Fire_Down_Distractor.gif"",""img/Fire_Down_Distractor.gif"",""img/Fire_Down_Distractor.gif"",""img/Fire_Down_Distractor.gif"",""img/Fire_Down_Distractor.gif"",""img/Fire_Down_Distractor.gif""]","6","targetUp_distractorsDown"
"","","","","","html-keyboard-response","148","913260","0.0-14.0-0.0-0.67","603823018fd0a91c7386e2b7","619531dcf66c91622fa1b861","619596b8c45d18f51806a8d7","null","","null","","","","","main_T1_ITI","","","","",""
"","","","","","visual-search-circle","149","924232","0.0-14.0-0.0-1.67","603823018fd0a91c7386e2b7","619531dcf66c91622fa1b861","619596b8c45d18f51806a8d7","9970","","s","true","[[331,1],[57,123],[25,422],[268,598],[542,476],[574,177]]","false","6","main_T2_Trial","s","img/Fire_Down_Target.gif","[""img/Fire_Up_Distractor.gif"",""img/Fire_Up_Distractor.gif"",""img/Fire_Up_Distractor.gif"",""img/Fire_Up_Distractor.gif"",""img/Fire_Up_Distractor.gif"",""img/Fire_Up_Distractor.gif"",""img/Fire_Up_Distractor.gif"",""img/Fire_Up_Distractor.gif"",""img/Fire_Up_Distractor.gif"",""img/Fire_Up_Distractor.gif"",""img/Fire_Up_Distractor.gif"",""img/Fire_Up_Distractor.gif""]","6","targetDown_distractorsUp"
"","","","","","html-keyboard-response","150","924234","0.0-14.0-0.0-0.68","603823018fd0a91c7386e2b7","619531dcf66c91622fa1b861","619596b8c45d18f51806a8d7","null","","null","","","","","main_T1_ITI","","","","",""
"","","","","","visual-search-circle","151","931421","0.0-14.0-0.0-1.68","603823018fd0a91c7386e2b7","619531dcf66c91622fa1b861","619596b8c45d18f51806a8d7","6182.4000000059605","","s","true","[[284,599],[500,522],[599,315],[522,99],[315,0],[99,77],[0,284],[77,500]]","false","8","main_T2_Trial","s","img/Fire_Down_Target.gif","[""img/Fire_Up_Distractor.gif"",""img/Fire_Up_Distractor.gif"",""img/Fire_Up_Distractor.gif"",""img/Fire_Up_Distractor.gif"",""img/Fire_Up_Distractor.gif"",""img/Fire_Up_Distractor.gif"",""img/Fire_Up_Distractor.gif"",""img/Fire_Up_Distractor.gif"",""img/Fire_Up_Distractor.gif"",""img/Fire_Up_Distractor.gif"",""img/Fire_Up_Distractor.gif"",""img/Fire_Up_Distractor.gif""]","8","targetDown_distractorsUp"
"","","","","","html-keyboard-response","152","931422","0.0-14.0-0.0-0.69","603823018fd0a91c7386e2b7","619531dcf66c91622fa1b861","619596b8c45d18f51806a8d7","null","","null","","","","","main_T1_ITI","","","","",""
"","","","","","visual-search-circle","153","935373","0.0-14.0-0.0-1.69","603823018fd0a91c7386e2b7","619531dcf66c91622fa1b861","619596b8c45d18f51806a8d7","2948","","d","true","[[1,331],[331,598],[598,268],[268,1]]","true","4","main_T2_Trial","d","img/Fire_Down_Target.gif","[""img/Fire_Up_Distractor.gif"",""img/Fire_Up_Distractor.gif"",""img/Fire_Up_Distractor.gif"",""img/Fire_Up_Distractor.gif"",""img/Fire_Up_Distractor.gif"",""img/Fire_Up_Distractor.gif"",""img/Fire_Up_Distractor.gif"",""img/Fire_Up_Distractor.gif"",""img/Fire_Up_Distractor.gif"",""img/Fire_Up_Distractor.gif"",""img/Fire_Up_Distractor.gif"",""img/Fire_Up_Distractor.gif""]","4","targetDown_distractorsUp"
"","","","","","html-keyboard-response","154","935374","0.0-14.0-0.0-0.70","603823018fd0a91c7386e2b7","619531dcf66c91622fa1b861","619596b8c45d18f51806a8d7","null","","null","","","","","main_T1_ITI","","","","",""
"","","","","","visual-search-circle","155","938500","0.0-14.0-0.0-1.70","603823018fd0a91c7386e2b7","619531dcf66c91622fa1b861","619596b8c45d18f51806a8d7","2122.2999999821186","","d","true","[[583,202],[357,5],[73,103],[16,397],[242,594],[526,496]]","true","6","main_T2_Trial","d","img/Fire_Down_Target.gif","[""img/Fire_Up_Distractor.gif"",""img/Fire_Up_Distractor.gif"",""img/Fire_Up_Distractor.gif"",""img/Fire_Up_Distractor.gif"",""img/Fire_Up_Distractor.gif"",""img/Fire_Up_Distractor.gif"",""img/Fire_Up_Distractor.gif"",""img/Fire_Up_Distractor.gif"",""img/Fire_Up_Distractor.gif"",""img/Fire_Up_Distractor.gif"",""img/Fire_Up_Distractor.gif"",""img/Fire_Up_Distractor.gif""]","6","targetDown_distractorsUp"
"","","","","","html-keyboard-response","156","938502","0.0-14.0-0.0-0.71","603823018fd0a91c7386e2b7","619531dcf66c91622fa1b861","619596b8c45d18f51806a8d7","null","","null","","","","","main_T1_ITI","","","","",""
"","","","","","visual-search-circle","157","941902","0.0-14.0-0.0-1.71","603823018fd0a91c7386e2b7","619531dcf66c91622fa1b861","619596b8c45d18f51806a8d7","2394.5999999940395","","d","true","[[111,533],[331,598],[533,488],[598,268],[488,66],[268,1],[66,111],[1,331]]","true","8","main_T2_Trial","d","img/Fire_Up_Target.gif","[""img/Fire_Down_Distractor.gif"",""img/Fire_Down_Distractor.gif"",""img/Fire_Down_Distractor.gif"",""img/Fire_Down_Distractor.gif"",""img/Fire_Down_Distractor.gif"",""img/Fire_Down_Distractor.gif"",""img/Fire_Down_Distractor.gif"",""img/Fire_Down_Distractor.gif"",""img/Fire_Down_Distractor.gif"",""img/Fire_Down_Distractor.gif"",""img/Fire_Down_Distractor.gif"",""img/Fire_Down_Distractor.gif""]","8","targetUp_distractorsDown"
"","","","","","html-keyboard-response","158","941905","0.0-14.0-0.0-0.72","603823018fd0a91c7386e2b7","619531dcf66c91622fa1b861","619596b8c45d18f51806a8d7","null","","null","","","","","main_T1_ITI","","","","",""
"","","","","","visual-search-circle","159","945211","0.0-14.0-0.0-1.72","603823018fd0a91c7386e2b7","619531dcf66c91622fa1b861","619596b8c45d18f51806a8d7","2301.5","","s","true","[[500,77],[284,0],[77,99],[0,315],[99,522],[315,599],[522,500],[599,284]]","false","8","main_T2_Trial","s","img/Fire_Up_Target.gif","[""img/Fire_Down_Distractor.gif"",""img/Fire_Down_Distractor.gif"",""img/Fire_Down_Distractor.gif"",""img/Fire_Down_Distractor.gif"",""img/Fire_Down_Distractor.gif"",""img/Fire_Down_Distractor.gif"",""img/Fire_Down_Distractor.gif"",""img/Fire_Down_Distractor.gif"",""img/Fire_Down_Distractor.gif"",""img/Fire_Down_Distractor.gif"",""img/Fire_Down_Distractor.gif"",""img/Fire_Down_Distractor.gif""]","8","targetUp_distractorsDown"
"","","","","","html-keyboard-response","160","945213","0.0-14.0-0.0-0.73","603823018fd0a91c7386e2b7","619531dcf66c91622fa1b861","619596b8c45d18f51806a8d7","null","","null","","","","","main_T1_ITI","","","","",""
"","","","","","visual-search-circle","161","955235","0.0-14.0-0.0-1.73","603823018fd0a91c7386e2b7","619531dcf66c91622fa1b861","619596b8c45d18f51806a8d7","9018.90000000596","","d","true","[[28,426],[229,591],[484,536],[599,303],[489,67],[236,6],[31,166]]","true","7","main_T2_Trial","d","img/Fire_Up_Target.gif","[""img/Fire_Down_Distractor.gif"",""img/Fire_Down_Distractor.gif"",""img/Fire_Down_Distractor.gif"",""img/Fire_Down_Distractor.gif"",""img/Fire_Down_Distractor.gif"",""img/Fire_Down_Distractor.gif"",""img/Fire_Down_Distractor.gif"",""img/Fire_Down_Distractor.gif"",""img/Fire_Down_Distractor.gif"",""img/Fire_Down_Distractor.gif"",""img/Fire_Down_Distractor.gif"",""img/Fire_Down_Distractor.gif""]","7","targetUp_distractorsDown"
"","","","","","html-keyboard-response","162","955237","0.0-14.0-0.0-0.74","603823018fd0a91c7386e2b7","619531dcf66c91622fa1b861","619596b8c45d18f51806a8d7","null","","null","","","","","main_T1_ITI","","","","",""
"","","","","","visual-search-circle","163","959435","0.0-14.0-0.0-1.74","603823018fd0a91c7386e2b7","619531dcf66c91622fa1b861","619596b8c45d18f51806a8d7","3193.9000000059605","","s","true","[[574,422],[566,161],[357,5],[106,71],[0,308],[120,540],[375,590]]","false","7","main_T2_Trial","s","img/Fire_Down_Target.gif","[""img/Fire_Up_Distractor.gif"",""img/Fire_Up_Distractor.gif"",""img/Fire_Up_Distractor.gif"",""img/Fire_Up_Distractor.gif"",""img/Fire_Up_Distractor.gif"",""img/Fire_Up_Distractor.gif"",""img/Fire_Up_Distractor.gif"",""img/Fire_Up_Distractor.gif"",""img/Fire_Up_Distractor.gif"",""img/Fire_Up_Distractor.gif"",""img/Fire_Up_Distractor.gif"",""img/Fire_Up_Distractor.gif""]","7","targetDown_distractorsUp"
"","","","","","html-keyboard-response","164","959437","0.0-14.0-0.0-0.75","603823018fd0a91c7386e2b7","619531dcf66c91622fa1b861","619596b8c45d18f51806a8d7","null","","null","","","","","main_T1_ITI","","","","",""
"","","","","","visual-search-circle","165","964662","0.0-14.0-0.0-1.75","603823018fd0a91c7386e2b7","619531dcf66c91622fa1b861","619596b8c45d18f51806a8d7","4222.5999999940395","","s","false","[[207,14],[0,299],[207,585],[542,476],[542,123]]","true","5","main_T2_Trial","d","img/Fire_Up_Target.gif","[""img/Fire_Down_Distractor.gif"",""img/Fire_Down_Distractor.gif"",""img/Fire_Down_Distractor.gif"",""img/Fire_Down_Distractor.gif"",""img/Fire_Down_Distractor.gif"",""img/Fire_Down_Distractor.gif"",""img/Fire_Down_Distractor.gif"",""img/Fire_Down_Distractor.gif"",""img/Fire_Down_Distractor.gif"",""img/Fire_Down_Distractor.gif"",""img/Fire_Down_Distractor.gif"",""img/Fire_Down_Distractor.gif""]","5","targetUp_distractorsDown"
"","","","","","html-keyboard-response","166","964665","0.0-14.0-0.0-0.76","603823018fd0a91c7386e2b7","619531dcf66c91622fa1b861","619596b8c45d18f51806a8d7","null","","null","","","","","main_T1_ITI","","","","",""
"","","","","","visual-search-circle","167","971351","0.0-14.0-0.0-1.76","603823018fd0a91c7386e2b7","619531dcf66c91622fa1b861","619596b8c45d18f51806a8d7","5682.100000023842","","d","true","[[127,545],[545,472],[472,54],[54,127]]","true","4","main_T2_Trial","d","img/Fire_Up_Target.gif","[""img/Fire_Down_Distractor.gif"",""img/Fire_Down_Distractor.gif"",""img/Fire_Down_Distractor.gif"",""img/Fire_Down_Distractor.gif"",""img/Fire_Down_Distractor.gif"",""img/Fire_Down_Distractor.gif"",""img/Fire_Down_Distractor.gif"",""img/Fire_Down_Distractor.gif"",""img/Fire_Down_Distractor.gif"",""img/Fire_Down_Distractor.gif"",""img/Fire_Down_Distractor.gif"",""img/Fire_Down_Distractor.gif""]","4","targetUp_distractorsDown"
"","","","","","html-keyboard-response","168","971353","0.0-14.0-0.0-0.77","603823018fd0a91c7386e2b7","619531dcf66c91622fa1b861","619596b8c45d18f51806a8d7","null","","null","","","","","main_T1_ITI","","","","",""
"","","","","","visual-search-circle","169","978144","0.0-14.0-0.0-1.77","603823018fd0a91c7386e2b7","619531dcf66c91622fa1b861","619596b8c45d18f51806a8d7","5789.0999999940395","","s","true","[[320,599],[599,279],[279,0],[0,320]]","false","4","main_T2_Trial","s","img/Fire_Up_Target.gif","[""img/Fire_Down_Distractor.gif"",""img/Fire_Down_Distractor.gif"",""img/Fire_Down_Distractor.gif"",""img/Fire_Down_Distractor.gif"",""img/Fire_Down_Distractor.gif"",""img/Fire_Down_Distractor.gif"",""img/Fire_Down_Distractor.gif"",""img/Fire_Down_Distractor.gif"",""img/Fire_Down_Distractor.gif"",""img/Fire_Down_Distractor.gif"",""img/Fire_Down_Distractor.gif"",""img/Fire_Down_Distractor.gif""]","4","targetUp_distractorsDown"
"","","","","","html-keyboard-response","170","978145","0.0-14.0-0.0-0.78","603823018fd0a91c7386e2b7","619531dcf66c91622fa1b861","619596b8c45d18f51806a8d7","null","","null","","","","","main_T1_ITI","","","","",""
"","","","","","visual-search-circle","171","980493","0.0-14.0-0.0-1.78","603823018fd0a91c7386e2b7","619531dcf66c91622fa1b861","619596b8c45d18f51806a8d7","1344.5999999940395","","d","true","[[305,599],[586,387],[472,54],[119,60],[16,397]]","true","5","main_T2_Trial","d","img/Fire_Up_Target.gif","[""img/Fire_Down_Distractor.gif"",""img/Fire_Down_Distractor.gif"",""img/Fire_Down_Distractor.gif"",""img/Fire_Down_Distractor.gif"",""img/Fire_Down_Distractor.gif"",""img/Fire_Down_Distractor.gif"",""img/Fire_Down_Distractor.gif"",""img/Fire_Down_Distractor.gif"",""img/Fire_Down_Distractor.gif"",""img/Fire_Down_Distractor.gif"",""img/Fire_Down_Distractor.gif"",""img/Fire_Down_Distractor.gif""]","5","targetUp_distractorsDown"
"","","","","","html-keyboard-response","172","1002769","0.0-14.0-0.0-0.79","603823018fd0a91c7386e2b7","619531dcf66c91622fa1b861","619596b8c45d18f51806a8d7","22275.59999999404","Wow! You've completed 80 out of 160 trials! </p> <p>  </p><p> Take a quick break, then press any key when you're ready to continue.","s","","","","","main_T1_ITI","","","","",""
"","","","","","visual-search-circle","173","1011033","0.0-14.0-0.0-1.79","603823018fd0a91c7386e2b7","619531dcf66c91622fa1b861","619596b8c45d18f51806a8d7","7259.0999999940395","","s","true","[[54,127],[4,352],[127,545],[352,595],[545,472],[595,247],[472,54],[247,4]]","false","8","main_T2_Trial","s","img/Fire_Down_Target.gif","[""img/Fire_Up_Distractor.gif"",""img/Fire_Up_Distractor.gif"",""img/Fire_Up_Distractor.gif"",""img/Fire_Up_Distractor.gif"",""img/Fire_Up_Distractor.gif"",""img/Fire_Up_Distractor.gif"",""img/Fire_Up_Distractor.gif"",""img/Fire_Up_Distractor.gif"",""img/Fire_Up_Distractor.gif"",""img/Fire_Up_Distractor.gif"",""img/Fire_Up_Distractor.gif"",""img/Fire_Up_Distractor.gif""]","8","targetDown_distractorsUp"
"","","","","","html-keyboard-response","174","1011036","0.0-14.0-0.0-0.80","603823018fd0a91c7386e2b7","619531dcf66c91622fa1b861","619596b8c45d18f51806a8d7","null","","null","","","","","main_T1_ITI","","","","",""
"","","","","","visual-search-circle","175","1023540","0.0-14.0-0.0-1.80","603823018fd0a91c7386e2b7","619531dcf66c91622fa1b861","619596b8c45d18f51806a8d7","11499.40000000596","","s","true","[[402,18],[173,28],[18,197],[28,426],[197,581],[426,571],[581,402],[571,173]]","false","8","main_T2_Trial","s","img/Fire_Down_Target.gif","[""img/Fire_Up_Distractor.gif"",""img/Fire_Up_Distractor.gif"",""img/Fire_Up_Distractor.gif"",""img/Fire_Up_Distractor.gif"",""img/Fire_Up_Distractor.gif"",""img/Fire_Up_Distractor.gif"",""img/Fire_Up_Distractor.gif"",""img/Fire_Up_Distractor.gif"",""img/Fire_Up_Distractor.gif"",""img/Fire_Up_Distractor.gif"",""img/Fire_Up_Distractor.gif"",""img/Fire_Up_Distractor.gif""]","8","targetDown_distractorsUp"
"","","","","","html-keyboard-response","176","1023542","0.0-14.0-0.0-0.81","603823018fd0a91c7386e2b7","619531dcf66c91622fa1b861","619596b8c45d18f51806a8d7","null","","null","","","","","main_T1_ITI","","","","",""
"","","","","","visual-search-circle","177","1026120","0.0-14.0-0.0-1.81","603823018fd0a91c7386e2b7","619531dcf66c91622fa1b861","619596b8c45d18f51806a8d7","1574.4000000059605","","s","true","[[60,119],[54,472],[387,586],[599,305],[397,16]]","false","5","main_T2_Trial","s","img/Fire_Down_Target.gif","[""img/Fire_Up_Distractor.gif"",""img/Fire_Up_Distractor.gif"",""img/Fire_Up_Distractor.gif"",""img/Fire_Up_Distractor.gif"",""img/Fire_Up_Distractor.gif"",""img/Fire_Up_Distractor.gif"",""img/Fire_Up_Distractor.gif"",""img/Fire_Up_Distractor.gif"",""img/Fire_Up_Distractor.gif"",""img/Fire_Up_Distractor.gif"",""img/Fire_Up_Distractor.gif"",""img/Fire_Up_Distractor.gif""]","5","targetDown_distractorsUp"
"","","","","","html-keyboard-response","178","1026122","0.0-14.0-0.0-0.82","603823018fd0a91c7386e2b7","619531dcf66c91622fa1b861","619596b8c45d18f51806a8d7","null","","null","","","","","main_T1_ITI","","","","",""
"","","","","","visual-search-circle","179","1029064","0.0-14.0-0.0-1.82","603823018fd0a91c7386e2b7","619531dcf66c91622fa1b861","619596b8c45d18f51806a8d7","1938.2999999821186","","d","true","[[107,70],[21,412],[320,599],[591,372],[458,45]]","true","5","main_T2_Trial","d","img/Fire_Down_Target.gif","[""img/Fire_Up_Distractor.gif"",""img/Fire_Up_Distractor.gif"",""img/Fire_Up_Distractor.gif"",""img/Fire_Up_Distractor.gif"",""img/Fire_Up_Distractor.gif"",""img/Fire_Up_Distractor.gif"",""img/Fire_Up_Distractor.gif"",""img/Fire_Up_Distractor.gif"",""img/Fire_Up_Distractor.gif"",""img/Fire_Up_Distractor.gif"",""img/Fire_Up_Distractor.gif"",""img/Fire_Up_Distractor.gif""]","5","targetDown_distractorsUp"
"","","","","","html-keyboard-response","180","1029066","0.0-14.0-0.0-0.83","603823018fd0a91c7386e2b7","619531dcf66c91622fa1b861","619596b8c45d18f51806a8d7","null","","null","","","","","main_T1_ITI","","","","",""
"","","","","","visual-search-circle","181","1033479","0.0-14.0-0.0-1.83","603823018fd0a91c7386e2b7","619531dcf66c91622fa1b861","619596b8c45d18f51806a8d7","3409","","s","true","[[445,562],[594,242],[336,2],[28,173],[95,519]]","false","5","main_T2_Trial","s","img/Fire_Up_Target.gif","[""img/Fire_Down_Distractor.gif"",""img/Fire_Down_Distractor.gif"",""img/Fire_Down_Distractor.gif"",""img/Fire_Down_Distractor.gif"",""img/Fire_Down_Distractor.gif"",""img/Fire_Down_Distractor.gif"",""img/Fire_Down_Distractor.gif"",""img/Fire_Down_Distractor.gif"",""img/Fire_Down_Distractor.gif"",""img/Fire_Down_Distractor.gif"",""img/Fire_Down_Distractor.gif"",""img/Fire_Down_Distractor.gif""]","5","targetUp_distractorsDown"
"","","","","","html-keyboard-response","182","1033482","0.0-14.0-0.0-0.84","603823018fd0a91c7386e2b7","619531dcf66c91622fa1b861","619596b8c45d18f51806a8d7","null","","null","","","","","main_T1_ITI","","","","",""
"","","","","","visual-search-circle","183","1037023","0.0-14.0-0.0-1.84","603823018fd0a91c7386e2b7","619531dcf66c91622fa1b861","619596b8c45d18f51806a8d7","2537.5999999940395","","d","true","[[13,212],[80,504],[367,592],[586,387],[519,95],[232,7]]","true","6","main_T2_Trial","d","img/Fire_Up_Target.gif","[""img/Fire_Down_Distractor.gif"",""img/Fire_Down_Distractor.gif"",""img/Fire_Down_Distractor.gif"",""img/Fire_Down_Distractor.gif"",""img/Fire_Down_Distractor.gif"",""img/Fire_Down_Distractor.gif"",""img/Fire_Down_Distractor.gif"",""img/Fire_Down_Distractor.gif"",""img/Fire_Down_Distractor.gif"",""img/Fire_Down_Distractor.gif"",""img/Fire_Down_Distractor.gif"",""img/Fire_Down_Distractor.gif""]","6","targetUp_distractorsDown"
"","","","","","html-keyboard-response","184","1037026","0.0-14.0-0.0-0.85","603823018fd0a91c7386e2b7","619531dcf66c91622fa1b861","619596b8c45d18f51806a8d7","null","","null","","","","","main_T1_ITI","","","","",""
"","","","","","visual-search-circle","185","1044240","0.0-14.0-0.0-1.85","603823018fd0a91c7386e2b7","619531dcf66c91622fa1b861","619596b8c45d18f51806a8d7","6211.699999988079","","s","true","[[247,595],[595,352],[352,4],[4,247]]","false","4","main_T2_Trial","s","img/Fire_Up_Target.gif","[""img/Fire_Down_Distractor.gif"",""img/Fire_Down_Distractor.gif"",""img/Fire_Down_Distractor.gif"",""img/Fire_Down_Distractor.gif"",""img/Fire_Down_Distractor.gif"",""img/Fire_Down_Distractor.gif"",""img/Fire_Down_Distractor.gif"",""img/Fire_Down_Distractor.gif"",""img/Fire_Down_Distractor.gif"",""img/Fire_Down_Distractor.gif"",""img/Fire_Down_Distractor.gif"",""img/Fire_Down_Distractor.gif""]","4","targetUp_distractorsDown"
"","","","","","html-keyboard-response","186","1044242","0.0-14.0-0.0-0.86","603823018fd0a91c7386e2b7","619531dcf66c91622fa1b861","619596b8c45d18f51806a8d7","null","","null","","","","","main_T1_ITI","","","","",""
"","","","","","visual-search-circle","187","1050925","0.0-14.0-0.0-1.86","603823018fd0a91c7386e2b7","619531dcf66c91622fa1b861","619596b8c45d18f51806a8d7","5678.899999976158","","s","true","[[5,357],[132,548],[357,594],[548,467],[594,242],[467,51],[242,5],[51,132]]","false","8","main_T2_Trial","s","img/Fire_Up_Target.gif","[""img/Fire_Down_Distractor.gif"",""img/Fire_Down_Distractor.gif"",""img/Fire_Down_Distractor.gif"",""img/Fire_Down_Distractor.gif"",""img/Fire_Down_Distractor.gif"",""img/Fire_Down_Distractor.gif"",""img/Fire_Down_Distractor.gif"",""img/Fire_Down_Distractor.gif"",""img/Fire_Down_Distractor.gif"",""img/Fire_Down_Distractor.gif"",""img/Fire_Down_Distractor.gif"",""img/Fire_Down_Distractor.gif""]","8","targetUp_distractorsDown"
"","","","","","html-keyboard-response","188","1050928","0.0-14.0-0.0-0.87","603823018fd0a91c7386e2b7","619531dcf66c91622fa1b861","619596b8c45d18f51806a8d7","null","","null","","","","","main_T1_ITI","","","","",""
"","","","","","visual-search-circle","189","1058004","0.0-14.0-0.0-1.87","603823018fd0a91c7386e2b7","619531dcf66c91622fa1b861","619596b8c45d18f51806a8d7","6071.700000017881","","s","true","[[512,512],[598,266],[459,45],[200,16],[16,200],[45,459],[266,598]]","false","7","main_T2_Trial","s","img/Fire_Up_Target.gif","[""img/Fire_Down_Distractor.gif"",""img/Fire_Down_Distractor.gif"",""img/Fire_Down_Distractor.gif"",""img/Fire_Down_Distractor.gif"",""img/Fire_Down_Distractor.gif"",""img/Fire_Down_Distractor.gif"",""img/Fire_Down_Distractor.gif"",""img/Fire_Down_Distractor.gif"",""img/Fire_Down_Distractor.gif"",""img/Fire_Down_Distractor.gif"",""img/Fire_Down_Distractor.gif"",""img/Fire_Down_Distractor.gif""]","7","targetUp_distractorsDown"
"","","","","","html-keyboard-response","190","1058006","0.0-14.0-0.0-0.88","603823018fd0a91c7386e2b7","619531dcf66c91622fa1b861","619596b8c45d18f51806a8d7","null","","null","","","","","main_T1_ITI","","","","",""
"","","","","","visual-search-circle","191","1065361","0.0-14.0-0.0-1.88","603823018fd0a91c7386e2b7","619531dcf66c91622fa1b861","619596b8c45d18f51806a8d7","6351","","d","true","[[11,217],[55,473],[283,599],[523,499],[595,249],[444,37],[184,22]]","true","7","main_T2_Trial","d","img/Fire_Up_Target.gif","[""img/Fire_Down_Distractor.gif"",""img/Fire_Down_Distractor.gif"",""img/Fire_Down_Distractor.gif"",""img/Fire_Down_Distractor.gif"",""img/Fire_Down_Distractor.gif"",""img/Fire_Down_Distractor.gif"",""img/Fire_Down_Distractor.gif"",""img/Fire_Down_Distractor.gif"",""img/Fire_Down_Distractor.gif"",""img/Fire_Down_Distractor.gif"",""img/Fire_Down_Distractor.gif"",""img/Fire_Down_Distractor.gif""]","7","targetUp_distractorsDown"
"","","","","","html-keyboard-response","192","1065364","0.0-14.0-0.0-0.89","603823018fd0a91c7386e2b7","619531dcf66c91622fa1b861","619596b8c45d18f51806a8d7","null","","null","","","","","main_T1_ITI","","","","",""
"","","","","","visual-search-circle","193","1078451","0.0-14.0-0.0-1.89","603823018fd0a91c7386e2b7","619531dcf66c91622fa1b861","619596b8c45d18f51806a8d7","12083.90000000596","","s","true","[[597,336],[336,2],[2,263],[263,597]]","false","4","main_T2_Trial","s","img/Fire_Down_Target.gif","[""img/Fire_Up_Distractor.gif"",""img/Fire_Up_Distractor.gif"",""img/Fire_Up_Distractor.gif"",""img/Fire_Up_Distractor.gif"",""img/Fire_Up_Distractor.gif"",""img/Fire_Up_Distractor.gif"",""img/Fire_Up_Distractor.gif"",""img/Fire_Up_Distractor.gif"",""img/Fire_Up_Distractor.gif"",""img/Fire_Up_Distractor.gif"",""img/Fire_Up_Distractor.gif"",""img/Fire_Up_Distractor.gif""]","4","targetDown_distractorsUp"
"","","","","","html-keyboard-response","194","1078453","0.0-14.0-0.0-0.90","603823018fd0a91c7386e2b7","619531dcf66c91622fa1b861","619596b8c45d18f51806a8d7","null","","null","","","","","main_T1_ITI","","","","",""
"","","","","","visual-search-circle","195","1082131","0.0-14.0-0.0-1.90","603823018fd0a91c7386e2b7","619531dcf66c91622fa1b861","619596b8c45d18f51806a8d7","2674","","s","true","[[8,372],[175,572],[435,567],[593,360],[530,108],[294,0],[61,117]]","false","7","main_T2_Trial","s","img/Fire_Down_Target.gif","[""img/Fire_Up_Distractor.gif"",""img/Fire_Up_Distractor.gif"",""img/Fire_Up_Distractor.gif"",""img/Fire_Up_Distractor.gif"",""img/Fire_Up_Distractor.gif"",""img/Fire_Up_Distractor.gif"",""img/Fire_Up_Distractor.gif"",""img/Fire_Up_Distractor.gif"",""img/Fire_Up_Distractor.gif"",""img/Fire_Up_Distractor.gif"",""img/Fire_Up_Distractor.gif"",""img/Fire_Up_Distractor.gif""]","7","targetDown_distractorsUp"
"","","","","","html-keyboard-response","196","1082133","0.0-14.0-0.0-0.91","603823018fd0a91c7386e2b7","619531dcf66c91622fa1b861","619596b8c45d18f51806a8d7","null","","null","","","","","main_T1_ITI","","","","",""
"","","","","","visual-search-circle","197","1087342","0.0-14.0-0.0-1.91","603823018fd0a91c7386e2b7","619531dcf66c91622fa1b861","619596b8c45d18f51806a8d7","4203.799999982119","","s","false","[[57,476],[253,596],[476,542],[596,346],[542,123],[346,3],[123,57],[3,253]]","true","8","main_T2_Trial","d","img/Fire_Down_Target.gif","[""img/Fire_Up_Distractor.gif"",""img/Fire_Up_Distractor.gif"",""img/Fire_Up_Distractor.gif"",""img/Fire_Up_Distractor.gif"",""img/Fire_Up_Distractor.gif"",""img/Fire_Up_Distractor.gif"",""img/Fire_Up_Distractor.gif"",""img/Fire_Up_Distractor.gif"",""img/Fire_Up_Distractor.gif"",""img/Fire_Up_Distractor.gif"",""img/Fire_Up_Distractor.gif"",""img/Fire_Up_Distractor.gif""]","8","targetDown_distractorsUp"
"","","","","","html-keyboard-response","198","1087344","0.0-14.0-0.0-0.92","603823018fd0a91c7386e2b7","619531dcf66c91622fa1b861","619596b8c45d18f51806a8d7","null","","null","","","","","main_T1_ITI","","","","",""
"","","","","","visual-search-circle","199","1095826","0.0-14.0-0.0-1.92","603823018fd0a91c7386e2b7","619531dcf66c91622fa1b861","619596b8c45d18f51806a8d7","7471.300000011921","","d","true","[[16,397],[242,594],[526,496],[583,202],[357,5],[73,103]]","true","6","main_T2_Trial","d","img/Fire_Down_Target.gif","[""img/Fire_Up_Distractor.gif"",""img/Fire_Up_Distractor.gif"",""img/Fire_Up_Distractor.gif"",""img/Fire_Up_Distractor.gif"",""img/Fire_Up_Distractor.gif"",""img/Fire_Up_Distractor.gif"",""img/Fire_Up_Distractor.gif"",""img/Fire_Up_Distractor.gif"",""img/Fire_Up_Distractor.gif"",""img/Fire_Up_Distractor.gif"",""img/Fire_Up_Distractor.gif"",""img/Fire_Up_Distractor.gif""]","6","targetDown_distractorsUp"
"","","","","","html-keyboard-response","200","1095827","0.0-14.0-0.0-0.93","603823018fd0a91c7386e2b7","619531dcf66c91622fa1b861","619596b8c45d18f51806a8d7","null","","null","","","","","main_T1_ITI","","","","",""
"","","","","","visual-search-circle","201","1100430","0.0-14.0-0.0-1.93","603823018fd0a91c7386e2b7","619531dcf66c91622fa1b861","619596b8c45d18f51806a8d7","3598.2999999821186","","s","true","[[80,95],[3,343],[149,559],[408,579],[586,389],[548,131],[323,0]]","false","7","main_T2_Trial","s","img/Fire_Down_Target.gif","[""img/Fire_Up_Distractor.gif"",""img/Fire_Up_Distractor.gif"",""img/Fire_Up_Distractor.gif"",""img/Fire_Up_Distractor.gif"",""img/Fire_Up_Distractor.gif"",""img/Fire_Up_Distractor.gif"",""img/Fire_Up_Distractor.gif"",""img/Fire_Up_Distractor.gif"",""img/Fire_Up_Distractor.gif"",""img/Fire_Up_Distractor.gif"",""img/Fire_Up_Distractor.gif"",""img/Fire_Up_Distractor.gif""]","7","targetDown_distractorsUp"
"","","","","","html-keyboard-response","202","1100431","0.0-14.0-0.0-0.94","603823018fd0a91c7386e2b7","619531dcf66c91622fa1b861","619596b8c45d18f51806a8d7","null","","null","","","","","main_T1_ITI","","","","",""
"","","","","","visual-search-circle","203","1107266","0.0-14.0-0.0-1.94","603823018fd0a91c7386e2b7","619531dcf66c91622fa1b861","619596b8c45d18f51806a8d7","5824.300000011921","","s","true","[[326,1],[1,273],[273,598],[598,326]]","false","4","main_T2_Trial","s","img/Fire_Up_Target.gif","[""img/Fire_Down_Distractor.gif"",""img/Fire_Down_Distractor.gif"",""img/Fire_Down_Distractor.gif"",""img/Fire_Down_Distractor.gif"",""img/Fire_Down_Distractor.gif"",""img/Fire_Down_Distractor.gif"",""img/Fire_Down_Distractor.gif"",""img/Fire_Down_Distractor.gif"",""img/Fire_Down_Distractor.gif"",""img/Fire_Down_Distractor.gif"",""img/Fire_Down_Distractor.gif"",""img/Fire_Down_Distractor.gif""]","4","targetUp_distractorsDown"
"","","","","","html-keyboard-response","204","1107268","0.0-14.0-0.0-0.95","603823018fd0a91c7386e2b7","619531dcf66c91622fa1b861","619596b8c45d18f51806a8d7","null","","null","","","","","main_T1_ITI","","","","",""
"","","","","","visual-search-circle","205","1116053","0.0-14.0-0.0-1.95","603823018fd0a91c7386e2b7","619531dcf66c91622fa1b861","619596b8c45d18f51806a8d7","7780.0999999940395","","d","true","[[536,484],[597,263],[484,63],[263,2],[63,115],[2,336],[115,536],[336,597]]","true","8","main_T2_Trial","d","img/Fire_Up_Target.gif","[""img/Fire_Down_Distractor.gif"",""img/Fire_Down_Distractor.gif"",""img/Fire_Down_Distractor.gif"",""img/Fire_Down_Distractor.gif"",""img/Fire_Down_Distractor.gif"",""img/Fire_Down_Distractor.gif"",""img/Fire_Down_Distractor.gif"",""img/Fire_Down_Distractor.gif"",""img/Fire_Down_Distractor.gif"",""img/Fire_Down_Distractor.gif"",""img/Fire_Down_Distractor.gif"",""img/Fire_Down_Distractor.gif""]","8","targetUp_distractorsDown"
"","","","","","html-keyboard-response","206","1116059","0.0-14.0-0.0-0.96","603823018fd0a91c7386e2b7","619531dcf66c91622fa1b861","619596b8c45d18f51806a8d7","null","","null","","","","","main_T1_ITI","","","","",""
"","","","","","visual-search-circle","207","1119289","0.0-14.0-0.0-1.96","603823018fd0a91c7386e2b7","619531dcf66c91622fa1b861","619596b8c45d18f51806a8d7","2226","","s","true","[[512,512],[567,163],[253,3],[3,253],[163,567]]","false","5","main_T2_Trial","s","img/Fire_Up_Target.gif","[""img/Fire_Down_Distractor.gif"",""img/Fire_Down_Distractor.gif"",""img/Fire_Down_Distractor.gif"",""img/Fire_Down_Distractor.gif"",""img/Fire_Down_Distractor.gif"",""img/Fire_Down_Distractor.gif"",""img/Fire_Down_Distractor.gif"",""img/Fire_Down_Distractor.gif"",""img/Fire_Down_Distractor.gif"",""img/Fire_Down_Distractor.gif"",""img/Fire_Down_Distractor.gif"",""img/Fire_Down_Distractor.gif""]","5","targetUp_distractorsDown"
"","","","","","html-keyboard-response","208","1119292","0.0-14.0-0.0-0.97","603823018fd0a91c7386e2b7","619531dcf66c91622fa1b861","619596b8c45d18f51806a8d7","null","","null","","","","","main_T1_ITI","","","","",""
"","","","","","visual-search-circle","209","1124866","0.0-14.0-0.0-1.97","603823018fd0a91c7386e2b7","619531dcf66c91622fa1b861","619596b8c45d18f51806a8d7","4570.4000000059605","","d","true","[[1,331],[237,593],[559,450],[522,99],[177,25]]","true","5","main_T2_Trial","d","img/Fire_Down_Target.gif","[""img/Fire_Up_Distractor.gif"",""img/Fire_Up_Distractor.gif"",""img/Fire_Up_Distractor.gif"",""img/Fire_Up_Distractor.gif"",""img/Fire_Up_Distractor.gif"",""img/Fire_Up_Distractor.gif"",""img/Fire_Up_Distractor.gif"",""img/Fire_Up_Distractor.gif"",""img/Fire_Up_Distractor.gif"",""img/Fire_Up_Distractor.gif"",""img/Fire_Up_Distractor.gif"",""img/Fire_Up_Distractor.gif""]","5","targetDown_distractorsUp"
"","","","","","html-keyboard-response","210","1124867","0.0-14.0-0.0-0.98","603823018fd0a91c7386e2b7","619531dcf66c91622fa1b861","619596b8c45d18f51806a8d7","null","","null","","","","","main_T1_ITI","","","","",""
"","","","","","visual-search-circle","211","1128763","0.0-14.0-0.0-1.98","603823018fd0a91c7386e2b7","619531dcf66c91622fa1b861","619596b8c45d18f51806a8d7","2891.699999988079","","d","true","[[591,227],[424,27],[164,32],[6,239],[69,491],[305,599],[538,482]]","true","7","main_T2_Trial","d","img/Fire_Down_Target.gif","[""img/Fire_Up_Distractor.gif"",""img/Fire_Up_Distractor.gif"",""img/Fire_Up_Distractor.gif"",""img/Fire_Up_Distractor.gif"",""img/Fire_Up_Distractor.gif"",""img/Fire_Up_Distractor.gif"",""img/Fire_Up_Distractor.gif"",""img/Fire_Up_Distractor.gif"",""img/Fire_Up_Distractor.gif"",""img/Fire_Up_Distractor.gif"",""img/Fire_Up_Distractor.gif"",""img/Fire_Up_Distractor.gif""]","7","targetDown_distractorsUp"
"","","","","","html-keyboard-response","212","1133072","0.0-14.0-0.0-0.99","603823018fd0a91c7386e2b7","619531dcf66c91622fa1b861","619596b8c45d18f51806a8d7","4308.5","Wow! You've completed 100 out of 160 trials! </p> <p>  </p><p> Take a quick break, then press any key when you're ready to continue.","d","","","","","main_T1_ITI","","","","",""
"","","","","","visual-search-circle","213","1136957","0.0-14.0-0.0-1.99","603823018fd0a91c7386e2b7","619531dcf66c91622fa1b861","619596b8c45d18f51806a8d7","2879.0999999940395","","s","true","[[159,35],[13,212],[35,440],[212,586],[440,564],[586,387],[564,159],[387,13]]","false","8","main_T2_Trial","s","img/Fire_Up_Target.gif","[""img/Fire_Down_Distractor.gif"",""img/Fire_Down_Distractor.gif"",""img/Fire_Down_Distractor.gif"",""img/Fire_Down_Distractor.gif"",""img/Fire_Down_Distractor.gif"",""img/Fire_Down_Distractor.gif"",""img/Fire_Down_Distractor.gif"",""img/Fire_Down_Distractor.gif"",""img/Fire_Down_Distractor.gif"",""img/Fire_Down_Distractor.gif"",""img/Fire_Down_Distractor.gif"",""img/Fire_Down_Distractor.gif""]","8","targetUp_distractorsDown"
"","","","","","html-keyboard-response","214","1136959","0.0-14.0-0.0-0.100","603823018fd0a91c7386e2b7","619531dcf66c91622fa1b861","619596b8c45d18f51806a8d7","null","","null","","","","","main_T1_ITI","","","","",""
"","","","","","visual-search-circle","215","1140726","0.0-14.0-0.0-1.100","603823018fd0a91c7386e2b7","619531dcf66c91622fa1b861","619596b8c45d18f51806a8d7","2763.0999999940395","","d","true","[[7,232],[45,458],[232,592],[458,554],[592,367],[554,141],[367,7],[141,45]]","true","8","main_T2_Trial","d","img/Fire_Down_Target.gif","[""img/Fire_Up_Distractor.gif"",""img/Fire_Up_Distractor.gif"",""img/Fire_Up_Distractor.gif"",""img/Fire_Up_Distractor.gif"",""img/Fire_Up_Distractor.gif"",""img/Fire_Up_Distractor.gif"",""img/Fire_Up_Distractor.gif"",""img/Fire_Up_Distractor.gif"",""img/Fire_Up_Distractor.gif"",""img/Fire_Up_Distractor.gif"",""img/Fire_Up_Distractor.gif"",""img/Fire_Up_Distractor.gif""]","8","targetDown_distractorsUp"
"","","","","","html-keyboard-response","216","1140728","0.0-14.0-0.0-0.101","603823018fd0a91c7386e2b7","619531dcf66c91622fa1b861","619596b8c45d18f51806a8d7","null","","null","","","","","main_T1_ITI","","","","",""
