"success","timeout","failed_images","failed_audio","failed_video","trial_type","trial_index","time_elapsed","internal_node_id","subject_id","study_id","session_id","rt","stimulus","response","correct","locations","target_present","set_size","task","correct_response","target","foilCM","setSizeCM","searchCondition"
"true","false","[]","[]","[]","preload","0","6754","0.0-0.0","603990bc95a5a047b165f662","619531dcf66c91622fa1b861","619595d41a0f707283706585","","","","","","","","","","","","",""
"true","","","","","fullscreen","1","18845","0.0-1.0","603990bc95a5a047b165f662","619531dcf66c91622fa1b861","619595d41a0f707283706585","","","","","","","","","","","","",""
"","","","","","html-keyboard-response","2","29144","0.0-2.0","603990bc95a5a047b165f662","619531dcf66c91622fa1b861","619595d41a0f707283706585","10298.5","What a beautiful Thursday to do some awesome science! </p> <p>  </p><p> </p>
    By completing this survey or questionnaire, you are consenting to be in this research study. </p>
    Your participation is voluntary and you can stop at any time.
    <p> [Press any key to continue.] </p>
    
    "," ","","","","","","","","","",""
"","","","","","video-keyboard-response","3","71298","0.0-3.0","603990bc95a5a047b165f662","619531dcf66c91622fa1b861","619595d41a0f707283706585","42152.60000000894","[""video/TaskInstructions.mp4""]"," ","","","","","","","","","",""
"","","","","","html-keyboard-response","4","77328","0.0-4.0","603990bc95a5a047b165f662","619531dcf66c91622fa1b861","619595d41a0f707283706585","6029.20000000298","
    <p>First, we're going to do a few practice trials to make sure you understand the task. You will recieve feedback on each trial. </p>
    <p>[Press any key to begin the familiarization phase.]</p>
    "," ","","","","","","","","","",""
"","","","","","visual-search-circle","5","80837","0.0-5.0-0.0","603990bc95a5a047b165f662","619531dcf66c91622fa1b861","619595d41a0f707283706585","2447.6000000089407","","d","true","[[14,207],[207,585],[585,392],[392,14]]","true","4","training","d","","","",""
"","","","","","html-keyboard-response","6","84826","0.0-6.0","603990bc95a5a047b165f662","619531dcf66c91622fa1b861","619595d41a0f707283706585","3989.1000000089407"," <div style='float: center; '><img src='img/feedbackRight.png'></img> </div> "," ","","","","","","","","","",""
"","","","","","visual-search-circle","7","87529","0.0-7.0-0.0","603990bc95a5a047b165f662","619531dcf66c91622fa1b861","619595d41a0f707283706585","1693.2999999970198","","s","true","[[496,73],[73,103],[103,526],[526,496]]","false","4","training","s","","","",""
"","","","","","html-keyboard-response","8","89445","0.0-8.0","603990bc95a5a047b165f662","619531dcf66c91622fa1b861","619595d41a0f707283706585","1915.300000011921"," <div style='float: center; '><img src='img/feedbackRight.png'></img> </div> "," ","","","","","","","","","",""
"","","","","","visual-search-circle","9","92585","0.0-9.0-0.0","603990bc95a5a047b165f662","619531dcf66c91622fa1b861","619595d41a0f707283706585","2134","","s","true","[[382,11],[91,84],[8,372],[217,588],[508,515],[591,227]]","false","6","training","s","","","",""
"","","","","","html-keyboard-response","10","94418","0.0-10.0","603990bc95a5a047b165f662","619531dcf66c91622fa1b861","619595d41a0f707283706585","1831.800000011921"," <div style='float: center; '><img src='img/feedbackRight.png'></img> </div> "," ","","","","","","","","","",""
"","","","","","visual-search-circle","11","96709","0.0-11.0-0.0","603990bc95a5a047b165f662","619531dcf66c91622fa1b861","619595d41a0f707283706585","1272.5","","d","true","[[0,284],[77,500],[284,599],[500,522],[599,315],[522,99],[315,0],[99,77]]","true","8","training","d","","","",""
"","","","","","html-keyboard-response","12","98469","0.0-12.0","603990bc95a5a047b165f662","619531dcf66c91622fa1b861","619595d41a0f707283706585","1759.9000000059605"," <div style='float: center; '><img src='img/feedbackRight.png'></img> </div> "," ","","","","","","","","","",""
"","","","","","video-keyboard-response","13","106580","0.0-13.0","603990bc95a5a047b165f662","619531dcf66c91622fa1b861","619595d41a0f707283706585","8109.70000000298","[""video/endTraining.mp4""]"," ","","","","","","","","","",""
"","","","","","html-keyboard-response","14","106583","0.0-14.0-0.0-0.0","603990bc95a5a047b165f662","619531dcf66c91622fa1b861","619595d41a0f707283706585","null","","null","","","","","main_T1_ITI","","","","",""
"","","","","","visual-search-circle","15","108652","0.0-14.0-0.0-1.0","603990bc95a5a047b165f662","619531dcf66c91622fa1b861","619595d41a0f707283706585","1047.2000000029802","","d","true","[[115,63],[18,402],[310,599],[588,382],[467,51]]","true","5","main_T2_Trial","d","img/Fire_Down_Target.gif","[""img/Fire_Up_Distractor.gif"",""img/Fire_Up_Distractor.gif"",""img/Fire_Up_Distractor.gif"",""img/Fire_Up_Distractor.gif"",""img/Fire_Up_Distractor.gif"",""img/Fire_Up_Distractor.gif"",""img/Fire_Up_Distractor.gif"",""img/Fire_Up_Distractor.gif"",""img/Fire_Up_Distractor.gif"",""img/Fire_Up_Distractor.gif"",""img/Fire_Up_Distractor.gif"",""img/Fire_Up_Distractor.gif""]","5","targetDown_distractorsUp"
"","","","","","html-keyboard-response","16","108654","0.0-14.0-0.0-0.1","603990bc95a5a047b165f662","619531dcf66c91622fa1b861","619595d41a0f707283706585","null","","null","","","","","main_T1_ITI","","","","",""
"","","","","","visual-search-circle","17","111685","0.0-14.0-0.0-1.1","603990bc95a5a047b165f662","619531dcf66c91622fa1b861","619595d41a0f707283706585","2016.699999988079","","d","true","[[2,341],[147,558],[406,580],[585,391],[549,133],[325,1],[82,93]]","true","7","main_T2_Trial","d","img/Fire_Up_Target.gif","[""img/Fire_Down_Distractor.gif"",""img/Fire_Down_Distractor.gif"",""img/Fire_Down_Distractor.gif"",""img/Fire_Down_Distractor.gif"",""img/Fire_Down_Distractor.gif"",""img/Fire_Down_Distractor.gif"",""img/Fire_Down_Distractor.gif"",""img/Fire_Down_Distractor.gif"",""img/Fire_Down_Distractor.gif"",""img/Fire_Down_Distractor.gif"",""img/Fire_Down_Distractor.gif"",""img/Fire_Down_Distractor.gif""]","7","targetUp_distractorsDown"
"","","","","","html-keyboard-response","18","111688","0.0-14.0-0.0-0.2","603990bc95a5a047b165f662","619531dcf66c91622fa1b861","619595d41a0f707283706585","null","","null","","","","","main_T1_ITI","","","","",""
"","","","","","visual-search-circle","19","113913","0.0-14.0-0.0-1.2","603990bc95a5a047b165f662","619531dcf66c91622fa1b861","619595d41a0f707283706585","1220","","s","true","[[217,11],[8,227],[91,515],[382,588],[591,372],[508,84]]","false","6","main_T2_Trial","s","img/Fire_Up_Target.gif","[""img/Fire_Down_Distractor.gif"",""img/Fire_Down_Distractor.gif"",""img/Fire_Down_Distractor.gif"",""img/Fire_Down_Distractor.gif"",""img/Fire_Down_Distractor.gif"",""img/Fire_Down_Distractor.gif"",""img/Fire_Down_Distractor.gif"",""img/Fire_Down_Distractor.gif"",""img/Fire_Down_Distractor.gif"",""img/Fire_Down_Distractor.gif"",""img/Fire_Down_Distractor.gif"",""img/Fire_Down_Distractor.gif""]","6","targetUp_distractorsDown"
"","","","","","html-keyboard-response","20","113915","0.0-14.0-0.0-0.3","603990bc95a5a047b165f662","619531dcf66c91622fa1b861","619595d41a0f707283706585","null","","null","","","","","main_T1_ITI","","","","",""
"","","","","","visual-search-circle","21","115995","0.0-14.0-0.0-1.3","603990bc95a5a047b165f662","619531dcf66c91622fa1b861","619595d41a0f707283706585","1063.2999999970198","","d","true","[[141,554],[399,582],[583,398],[553,139],[332,1],[87,88],[1,334]]","true","7","main_T2_Trial","d","img/Fire_Down_Target.gif","[""img/Fire_Up_Distractor.gif"",""img/Fire_Up_Distractor.gif"",""img/Fire_Up_Distractor.gif"",""img/Fire_Up_Distractor.gif"",""img/Fire_Up_Distractor.gif"",""img/Fire_Up_Distractor.gif"",""img/Fire_Up_Distractor.gif"",""img/Fire_Up_Distractor.gif"",""img/Fire_Up_Distractor.gif"",""img/Fire_Up_Distractor.gif"",""img/Fire_Up_Distractor.gif"",""img/Fire_Up_Distractor.gif""]","7","targetDown_distractorsUp"
"","","","","","html-keyboard-response","22","116000","0.0-14.0-0.0-0.4","603990bc95a5a047b165f662","619531dcf66c91622fa1b861","619595d41a0f707283706585","null","","null","","","","","main_T1_ITI","","","","",""
"","","","","","visual-search-circle","23","118074","0.0-14.0-0.0-1.4","603990bc95a5a047b165f662","619531dcf66c91622fa1b861","619595d41a0f707283706585","1059.699999988079","","s","true","[[2,263],[63,484],[263,597],[484,536],[597,336],[536,115],[336,2],[115,63]]","false","8","main_T2_Trial","s","img/Fire_Down_Target.gif","[""img/Fire_Up_Distractor.gif"",""img/Fire_Up_Distractor.gif"",""img/Fire_Up_Distractor.gif"",""img/Fire_Up_Distractor.gif"",""img/Fire_Up_Distractor.gif"",""img/Fire_Up_Distractor.gif"",""img/Fire_Up_Distractor.gif"",""img/Fire_Up_Distractor.gif"",""img/Fire_Up_Distractor.gif"",""img/Fire_Up_Distractor.gif"",""img/Fire_Up_Distractor.gif"",""img/Fire_Up_Distractor.gif""]","8","targetDown_distractorsUp"
"","","","","","html-keyboard-response","24","118077","0.0-14.0-0.0-0.5","603990bc95a5a047b165f662","619531dcf66c91622fa1b861","619595d41a0f707283706585","null","","null","","","","","main_T1_ITI","","","","",""
"","","","","","visual-search-circle","25","121156","0.0-14.0-0.0-1.5","603990bc95a5a047b165f662","619531dcf66c91622fa1b861","619595d41a0f707283706585","2071","","s","true","[[111,66],[66,488],[488,533],[533,111]]","false","4","main_T2_Trial","s","img/Fire_Up_Target.gif","[""img/Fire_Down_Distractor.gif"",""img/Fire_Down_Distractor.gif"",""img/Fire_Down_Distractor.gif"",""img/Fire_Down_Distractor.gif"",""img/Fire_Down_Distractor.gif"",""img/Fire_Down_Distractor.gif"",""img/Fire_Down_Distractor.gif"",""img/Fire_Down_Distractor.gif"",""img/Fire_Down_Distractor.gif"",""img/Fire_Down_Distractor.gif"",""img/Fire_Down_Distractor.gif"",""img/Fire_Down_Distractor.gif""]","4","targetUp_distractorsDown"
"","","","","","html-keyboard-response","26","121159","0.0-14.0-0.0-0.6","603990bc95a5a047b165f662","619531dcf66c91622fa1b861","619595d41a0f707283706585","null","","null","","","","","main_T1_ITI","","","","",""
"","","","","","visual-search-circle","27","123164","0.0-14.0-0.0-1.6","603990bc95a5a047b165f662","619531dcf66c91622fa1b861","619595d41a0f707283706585","994.6000000089407","","d","true","[[591,372],[538,117],[305,0],[69,108],[6,360],[164,567],[424,572]]","true","7","main_T2_Trial","d","img/Fire_Up_Target.gif","[""img/Fire_Down_Distractor.gif"",""img/Fire_Down_Distractor.gif"",""img/Fire_Down_Distractor.gif"",""img/Fire_Down_Distractor.gif"",""img/Fire_Down_Distractor.gif"",""img/Fire_Down_Distractor.gif"",""img/Fire_Down_Distractor.gif"",""img/Fire_Down_Distractor.gif"",""img/Fire_Down_Distractor.gif"",""img/Fire_Down_Distractor.gif"",""img/Fire_Down_Distractor.gif"",""img/Fire_Down_Distractor.gif""]","7","targetUp_distractorsDown"
"","","","","","html-keyboard-response","28","123166","0.0-14.0-0.0-0.7","603990bc95a5a047b165f662","619531dcf66c91622fa1b861","619595d41a0f707283706585","null","","null","","","","","main_T1_ITI","","","","",""
"","","","","","visual-search-circle","29","125241","0.0-14.0-0.0-1.7","603990bc95a5a047b165f662","619531dcf66c91622fa1b861","619595d41a0f707283706585","1062.2999999970198","","d","true","[[586,387],[387,13],[13,212],[212,586]]","true","4","main_T2_Trial","d","img/Fire_Up_Target.gif","[""img/Fire_Down_Distractor.gif"",""img/Fire_Down_Distractor.gif"",""img/Fire_Down_Distractor.gif"",""img/Fire_Down_Distractor.gif"",""img/Fire_Down_Distractor.gif"",""img/Fire_Down_Distractor.gif"",""img/Fire_Down_Distractor.gif"",""img/Fire_Down_Distractor.gif"",""img/Fire_Down_Distractor.gif"",""img/Fire_Down_Distractor.gif"",""img/Fire_Down_Distractor.gif"",""img/Fire_Down_Distractor.gif""]","4","targetUp_distractorsDown"
"","","","","","html-keyboard-response","30","125243","0.0-14.0-0.0-0.8","603990bc95a5a047b165f662","619531dcf66c91622fa1b861","619595d41a0f707283706585","null","","null","","","","","main_T1_ITI","","","","",""
"","","","","","visual-search-circle","31","127198","0.0-14.0-0.0-1.8","603990bc95a5a047b165f662","619531dcf66c91622fa1b861","619595d41a0f707283706585","949.7999999970198","","s","true","[[583,202],[431,30],[202,16],[30,168],[16,397],[168,569],[397,583],[569,431]]","false","8","main_T2_Trial","s","img/Fire_Down_Target.gif","[""img/Fire_Up_Distractor.gif"",""img/Fire_Up_Distractor.gif"",""img/Fire_Up_Distractor.gif"",""img/Fire_Up_Distractor.gif"",""img/Fire_Up_Distractor.gif"",""img/Fire_Up_Distractor.gif"",""img/Fire_Up_Distractor.gif"",""img/Fire_Up_Distractor.gif"",""img/Fire_Up_Distractor.gif"",""img/Fire_Up_Distractor.gif"",""img/Fire_Up_Distractor.gif"",""img/Fire_Up_Distractor.gif""]","8","targetDown_distractorsUp"
"","","","","","html-keyboard-response","32","127207","0.0-14.0-0.0-0.9","603990bc95a5a047b165f662","619531dcf66c91622fa1b861","619595d41a0f707283706585","null","","null","","","","","main_T1_ITI","","","","",""
"","","","","","visual-search-circle","33","129410","0.0-14.0-0.0-1.9","603990bc95a5a047b165f662","619531dcf66c91622fa1b861","619595d41a0f707283706585","1193.4000000059605","","s","true","[[554,458],[592,232],[458,45],[232,7],[45,141],[7,367],[141,554],[367,592]]","false","8","main_T2_Trial","s","img/Fire_Up_Target.gif","[""img/Fire_Down_Distractor.gif"",""img/Fire_Down_Distractor.gif"",""img/Fire_Down_Distractor.gif"",""img/Fire_Down_Distractor.gif"",""img/Fire_Down_Distractor.gif"",""img/Fire_Down_Distractor.gif"",""img/Fire_Down_Distractor.gif"",""img/Fire_Down_Distractor.gif"",""img/Fire_Down_Distractor.gif"",""img/Fire_Down_Distractor.gif"",""img/Fire_Down_Distractor.gif"",""img/Fire_Down_Distractor.gif""]","8","targetUp_distractorsDown"
"","","","","","html-keyboard-response","34","129413","0.0-14.0-0.0-0.10","603990bc95a5a047b165f662","619531dcf66c91622fa1b861","619595d41a0f707283706585","null","","null","","","","","main_T1_ITI","","","","",""
"","","","","","visual-search-circle","35","131503","0.0-14.0-0.0-1.10","603990bc95a5a047b165f662","619531dcf66c91622fa1b861","619595d41a0f707283706585","1077.0999999940395","","s","true","[[159,564],[564,440],[440,35],[35,159]]","false","4","main_T2_Trial","s","img/Fire_Up_Target.gif","[""img/Fire_Down_Distractor.gif"",""img/Fire_Down_Distractor.gif"",""img/Fire_Down_Distractor.gif"",""img/Fire_Down_Distractor.gif"",""img/Fire_Down_Distractor.gif"",""img/Fire_Down_Distractor.gif"",""img/Fire_Down_Distractor.gif"",""img/Fire_Down_Distractor.gif"",""img/Fire_Down_Distractor.gif"",""img/Fire_Down_Distractor.gif"",""img/Fire_Down_Distractor.gif"",""img/Fire_Down_Distractor.gif""]","4","targetUp_distractorsDown"
"","","","","","html-keyboard-response","36","131506","0.0-14.0-0.0-0.11","603990bc95a5a047b165f662","619531dcf66c91622fa1b861","619595d41a0f707283706585","null","","null","","","","","main_T1_ITI","","","","",""
"","","","","","visual-search-circle","37","133535","0.0-14.0-0.0-1.11","603990bc95a5a047b165f662","619531dcf66c91622fa1b861","619595d41a0f707283706585","1026.5","","d","true","[[341,2],[63,115],[21,412],[258,597],[536,484],[578,187]]","true","6","main_T2_Trial","d","img/Fire_Down_Target.gif","[""img/Fire_Up_Distractor.gif"",""img/Fire_Up_Distractor.gif"",""img/Fire_Up_Distractor.gif"",""img/Fire_Up_Distractor.gif"",""img/Fire_Up_Distractor.gif"",""img/Fire_Up_Distractor.gif"",""img/Fire_Up_Distractor.gif"",""img/Fire_Up_Distractor.gif"",""img/Fire_Up_Distractor.gif"",""img/Fire_Up_Distractor.gif"",""img/Fire_Up_Distractor.gif"",""img/Fire_Up_Distractor.gif""]","6","targetDown_distractorsUp"
"","","","","","html-keyboard-response","38","133537","0.0-14.0-0.0-0.12","603990bc95a5a047b165f662","619531dcf66c91622fa1b861","619595d41a0f707283706585","null","","null","","","","","main_T1_ITI","","","","",""
"","","","","","visual-search-circle","39","135585","0.0-14.0-0.0-1.12","603990bc95a5a047b165f662","619531dcf66c91622fa1b861","619595d41a0f707283706585","1033.2000000029802","","d","true","[[599,284],[436,32],[136,48],[0,315],[163,567],[463,551]]","true","6","main_T2_Trial","d","img/Fire_Down_Target.gif","[""img/Fire_Up_Distractor.gif"",""img/Fire_Up_Distractor.gif"",""img/Fire_Up_Distractor.gif"",""img/Fire_Up_Distractor.gif"",""img/Fire_Up_Distractor.gif"",""img/Fire_Up_Distractor.gif"",""img/Fire_Up_Distractor.gif"",""img/Fire_Up_Distractor.gif"",""img/Fire_Up_Distractor.gif"",""img/Fire_Up_Distractor.gif"",""img/Fire_Up_Distractor.gif"",""img/Fire_Up_Distractor.gif""]","6","targetDown_distractorsUp"
"","","","","","html-keyboard-response","40","135587","0.0-14.0-0.0-0.13","603990bc95a5a047b165f662","619531dcf66c91622fa1b861","619595d41a0f707283706585","null","","null","","","","","main_T1_ITI","","","","",""
"","","","","","visual-search-circle","41","137348","0.0-14.0-0.0-1.13","603990bc95a5a047b165f662","619531dcf66c91622fa1b861","619595d41a0f707283706585","743.5","","d","true","[[372,8],[8,227],[227,591],[591,372]]","true","4","main_T2_Trial","d","img/Fire_Down_Target.gif","[""img/Fire_Up_Distractor.gif"",""img/Fire_Up_Distractor.gif"",""img/Fire_Up_Distractor.gif"",""img/Fire_Up_Distractor.gif"",""img/Fire_Up_Distractor.gif"",""img/Fire_Up_Distractor.gif"",""img/Fire_Up_Distractor.gif"",""img/Fire_Up_Distractor.gif"",""img/Fire_Up_Distractor.gif"",""img/Fire_Up_Distractor.gif"",""img/Fire_Up_Distractor.gif"",""img/Fire_Up_Distractor.gif""]","4","targetDown_distractorsUp"
"","","","","","html-keyboard-response","42","137360","0.0-14.0-0.0-0.14","603990bc95a5a047b165f662","619531dcf66c91622fa1b861","619595d41a0f707283706585","null","","null","","","","","main_T1_ITI","","","","",""
"","","","","","visual-search-circle","43","139160","0.0-14.0-0.0-1.14","603990bc95a5a047b165f662","619531dcf66c91622fa1b861","619595d41a0f707283706585","790.7999999970198","","s","true","[[352,4],[70,107],[18,402],[247,595],[529,492],[581,197]]","false","6","main_T2_Trial","s","img/Fire_Down_Target.gif","[""img/Fire_Up_Distractor.gif"",""img/Fire_Up_Distractor.gif"",""img/Fire_Up_Distractor.gif"",""img/Fire_Up_Distractor.gif"",""img/Fire_Up_Distractor.gif"",""img/Fire_Up_Distractor.gif"",""img/Fire_Up_Distractor.gif"",""img/Fire_Up_Distractor.gif"",""img/Fire_Up_Distractor.gif"",""img/Fire_Up_Distractor.gif"",""img/Fire_Up_Distractor.gif"",""img/Fire_Up_Distractor.gif""]","6","targetDown_distractorsUp"
"","","","","","html-keyboard-response","44","139162","0.0-14.0-0.0-0.15","603990bc95a5a047b165f662","619531dcf66c91622fa1b861","619595d41a0f707283706585","null","","null","","","","","main_T1_ITI","","","","",""
"","","","","","visual-search-circle","45","140969","0.0-14.0-0.0-1.15","603990bc95a5a047b165f662","619531dcf66c91622fa1b861","619595d41a0f707283706585","798.4000000059605","","s","true","[[77,99],[4,349],[153,562],[413,577],[587,384],[545,127],[317,0]]","false","7","main_T2_Trial","s","img/Fire_Down_Target.gif","[""img/Fire_Up_Distractor.gif"",""img/Fire_Up_Distractor.gif"",""img/Fire_Up_Distractor.gif"",""img/Fire_Up_Distractor.gif"",""img/Fire_Up_Distractor.gif"",""img/Fire_Up_Distractor.gif"",""img/Fire_Up_Distractor.gif"",""img/Fire_Up_Distractor.gif"",""img/Fire_Up_Distractor.gif"",""img/Fire_Up_Distractor.gif"",""img/Fire_Up_Distractor.gif"",""img/Fire_Up_Distractor.gif""]","7","targetDown_distractorsUp"
"","","","","","html-keyboard-response","46","140970","0.0-14.0-0.0-0.16","603990bc95a5a047b165f662","619531dcf66c91622fa1b861","619595d41a0f707283706585","null","","null","","","","","main_T1_ITI","","","","",""
"","","","","","visual-search-circle","47","143049","0.0-14.0-0.0-1.16","603990bc95a5a047b165f662","619531dcf66c91622fa1b861","619595d41a0f707283706585","1069.300000011921","","d","true","[[187,21],[0,320],[227,591],[554,458],[529,107]]","true","5","main_T2_Trial","d","img/Fire_Down_Target.gif","[""img/Fire_Up_Distractor.gif"",""img/Fire_Up_Distractor.gif"",""img/Fire_Up_Distractor.gif"",""img/Fire_Up_Distractor.gif"",""img/Fire_Up_Distractor.gif"",""img/Fire_Up_Distractor.gif"",""img/Fire_Up_Distractor.gif"",""img/Fire_Up_Distractor.gif"",""img/Fire_Up_Distractor.gif"",""img/Fire_Up_Distractor.gif"",""img/Fire_Up_Distractor.gif"",""img/Fire_Up_Distractor.gif""]","5","targetDown_distractorsUp"
"","","","","","html-keyboard-response","48","143054","0.0-14.0-0.0-0.17","603990bc95a5a047b165f662","619531dcf66c91622fa1b861","619595d41a0f707283706585","null","","null","","","","","main_T1_ITI","","","","",""
"","","","","","visual-search-circle","49","145116","0.0-14.0-0.0-1.17","603990bc95a5a047b165f662","619531dcf66c91622fa1b861","619595d41a0f707283706585","1050.8999999910593","","d","true","[[6,237],[149,559],[500,522],[574,177],[268,1]]","true","5","main_T2_Trial","d","img/Fire_Up_Target.gif","[""img/Fire_Down_Distractor.gif"",""img/Fire_Down_Distractor.gif"",""img/Fire_Down_Distractor.gif"",""img/Fire_Down_Distractor.gif"",""img/Fire_Down_Distractor.gif"",""img/Fire_Down_Distractor.gif"",""img/Fire_Down_Distractor.gif"",""img/Fire_Down_Distractor.gif"",""img/Fire_Down_Distractor.gif"",""img/Fire_Down_Distractor.gif"",""img/Fire_Down_Distractor.gif"",""img/Fire_Down_Distractor.gif""]","5","targetUp_distractorsDown"
"","","","","","html-keyboard-response","50","145118","0.0-14.0-0.0-0.18","603990bc95a5a047b165f662","619531dcf66c91622fa1b861","619595d41a0f707283706585","null","","null","","","","","main_T1_ITI","","","","",""
"","","","","","visual-search-circle","51","147747","0.0-14.0-0.0-1.18","603990bc95a5a047b165f662","619531dcf66c91622fa1b861","619595d41a0f707283706585","1611.7000000029802","","s","true","[[599,294],[508,84],[294,0],[84,91],[0,305],[91,515],[305,599],[515,508]]","false","8","main_T2_Trial","s","img/Fire_Up_Target.gif","[""img/Fire_Down_Distractor.gif"",""img/Fire_Down_Distractor.gif"",""img/Fire_Down_Distractor.gif"",""img/Fire_Down_Distractor.gif"",""img/Fire_Down_Distractor.gif"",""img/Fire_Down_Distractor.gif"",""img/Fire_Down_Distractor.gif"",""img/Fire_Down_Distractor.gif"",""img/Fire_Down_Distractor.gif"",""img/Fire_Down_Distractor.gif"",""img/Fire_Down_Distractor.gif"",""img/Fire_Down_Distractor.gif""]","8","targetUp_distractorsDown"
"","","","","","html-keyboard-response","52","154690","0.0-14.0-0.0-0.19","603990bc95a5a047b165f662","619531dcf66c91622fa1b861","619595d41a0f707283706585","6941.899999991059","Wow! You've completed 20 out of 160 trials! </p> <p>  </p><p> Take a quick break, then press any key when you're ready to continue.","d","","","","","main_T1_ITI","","","","",""
"","","","","","visual-search-circle","53","157328","0.0-14.0-0.0-1.19","603990bc95a5a047b165f662","619531dcf66c91622fa1b861","619595d41a0f707283706585","1627.8999999910593","","d","true","[[0,310],[217,588],[548,467],[536,115],[197,18]]","true","5","main_T2_Trial","d","img/Fire_Up_Target.gif","[""img/Fire_Down_Distractor.gif"",""img/Fire_Down_Distractor.gif"",""img/Fire_Down_Distractor.gif"",""img/Fire_Down_Distractor.gif"",""img/Fire_Down_Distractor.gif"",""img/Fire_Down_Distractor.gif"",""img/Fire_Down_Distractor.gif"",""img/Fire_Down_Distractor.gif"",""img/Fire_Down_Distractor.gif"",""img/Fire_Down_Distractor.gif"",""img/Fire_Down_Distractor.gif"",""img/Fire_Down_Distractor.gif""]","5","targetUp_distractorsDown"
"","","","","","html-keyboard-response","54","157337","0.0-14.0-0.0-0.20","603990bc95a5a047b165f662","619531dcf66c91622fa1b861","619595d41a0f707283706585","null","","null","","","","","main_T1_ITI","","","","",""
"","","","","","visual-search-circle","55","159466","0.0-14.0-0.0-1.20","603990bc95a5a047b165f662","619531dcf66c91622fa1b861","619595d41a0f707283706585","1112.7999999970198","","s","true","[[440,35],[180,24],[10,221],[58,477],[288,599],[526,496],[594,244]]","false","7","main_T2_Trial","s","img/Fire_Up_Target.gif","[""img/Fire_Down_Distractor.gif"",""img/Fire_Down_Distractor.gif"",""img/Fire_Down_Distractor.gif"",""img/Fire_Down_Distractor.gif"",""img/Fire_Down_Distractor.gif"",""img/Fire_Down_Distractor.gif"",""img/Fire_Down_Distractor.gif"",""img/Fire_Down_Distractor.gif"",""img/Fire_Down_Distractor.gif"",""img/Fire_Down_Distractor.gif"",""img/Fire_Down_Distractor.gif"",""img/Fire_Down_Distractor.gif""]","7","targetUp_distractorsDown"
"","","","","","html-keyboard-response","56","159468","0.0-14.0-0.0-0.21","603990bc95a5a047b165f662","619531dcf66c91622fa1b861","619595d41a0f707283706585","null","","null","","","","","main_T1_ITI","","","","",""
"","","","","","visual-search-circle","57","161766","0.0-14.0-0.0-1.21","603990bc95a5a047b165f662","619531dcf66c91622fa1b861","619595d41a0f707283706585","1285.1000000089407","","d","true","[[87,512],[299,600],[512,512],[600,300],[512,87],[300,0],[87,87],[0,299]]","true","8","main_T2_Trial","d","img/Fire_Up_Target.gif","[""img/Fire_Down_Distractor.gif"",""img/Fire_Down_Distractor.gif"",""img/Fire_Down_Distractor.gif"",""img/Fire_Down_Distractor.gif"",""img/Fire_Down_Distractor.gif"",""img/Fire_Down_Distractor.gif"",""img/Fire_Down_Distractor.gif"",""img/Fire_Down_Distractor.gif"",""img/Fire_Down_Distractor.gif"",""img/Fire_Down_Distractor.gif"",""img/Fire_Down_Distractor.gif"",""img/Fire_Down_Distractor.gif""]","8","targetUp_distractorsDown"
"","","","","","html-keyboard-response","58","161768","0.0-14.0-0.0-0.22","603990bc95a5a047b165f662","619531dcf66c91622fa1b861","619595d41a0f707283706585","null","","null","","","","","main_T1_ITI","","","","",""
"","","","","","visual-search-circle","59","164614","0.0-14.0-0.0-1.22","603990bc95a5a047b165f662","619531dcf66c91622fa1b861","619595d41a0f707283706585","1828.2999999970198","","s","true","[[310,0],[0,289],[289,599],[599,310]]","false","4","main_T2_Trial","s","img/Fire_Down_Target.gif","[""img/Fire_Up_Distractor.gif"",""img/Fire_Up_Distractor.gif"",""img/Fire_Up_Distractor.gif"",""img/Fire_Up_Distractor.gif"",""img/Fire_Up_Distractor.gif"",""img/Fire_Up_Distractor.gif"",""img/Fire_Up_Distractor.gif"",""img/Fire_Up_Distractor.gif"",""img/Fire_Up_Distractor.gif"",""img/Fire_Up_Distractor.gif"",""img/Fire_Up_Distractor.gif"",""img/Fire_Up_Distractor.gif""]","4","targetDown_distractorsUp"
"","","","","","html-keyboard-response","60","164619","0.0-14.0-0.0-0.23","603990bc95a5a047b165f662","619531dcf66c91622fa1b861","619595d41a0f707283706585","null","","null","","","","","main_T1_ITI","","","","",""
"","","","","","visual-search-circle","61","167352","0.0-14.0-0.0-1.23","603990bc95a5a047b165f662","619531dcf66c91622fa1b861","619595d41a0f707283706585","1713.4000000059605","","s","true","[[387,586],[586,212],[212,13],[13,387]]","false","4","main_T2_Trial","s","img/Fire_Up_Target.gif","[""img/Fire_Down_Distractor.gif"",""img/Fire_Down_Distractor.gif"",""img/Fire_Down_Distractor.gif"",""img/Fire_Down_Distractor.gif"",""img/Fire_Down_Distractor.gif"",""img/Fire_Down_Distractor.gif"",""img/Fire_Down_Distractor.gif"",""img/Fire_Down_Distractor.gif"",""img/Fire_Down_Distractor.gif"",""img/Fire_Down_Distractor.gif"",""img/Fire_Down_Distractor.gif"",""img/Fire_Down_Distractor.gif""]","4","targetUp_distractorsDown"
"","","","","","html-keyboard-response","62","167354","0.0-14.0-0.0-0.24","603990bc95a5a047b165f662","619531dcf66c91622fa1b861","619595d41a0f707283706585","null","","null","","","","","main_T1_ITI","","","","",""
"","","","","","visual-search-circle","63","169666","0.0-14.0-0.0-1.24","603990bc95a5a047b165f662","619531dcf66c91622fa1b861","619595d41a0f707283706585","1294.7000000029802","","d","true","[[6,362],[268,598],[574,422],[500,77],[150,40]]","true","5","main_T2_Trial","d","img/Fire_Up_Target.gif","[""img/Fire_Down_Distractor.gif"",""img/Fire_Down_Distractor.gif"",""img/Fire_Down_Distractor.gif"",""img/Fire_Down_Distractor.gif"",""img/Fire_Down_Distractor.gif"",""img/Fire_Down_Distractor.gif"",""img/Fire_Down_Distractor.gif"",""img/Fire_Down_Distractor.gif"",""img/Fire_Down_Distractor.gif"",""img/Fire_Down_Distractor.gif"",""img/Fire_Down_Distractor.gif"",""img/Fire_Down_Distractor.gif""]","5","targetUp_distractorsDown"
"","","","","","html-keyboard-response","64","169888","0.0-14.0-0.0-0.25","603990bc95a5a047b165f662","619531dcf66c91622fa1b861","619595d41a0f707283706585","null","","null","","","","","main_T1_ITI","","","","",""
"","","","","","visual-search-circle","65","172191","0.0-14.0-0.0-1.25","603990bc95a5a047b165f662","619531dcf66c91622fa1b861","619595d41a0f707283706585","1286.2999999970198","","s","true","[[237,593],[522,500],[585,207],[362,6],[77,99],[14,392]]","false","6","main_T2_Trial","s","img/Fire_Up_Target.gif","[""img/Fire_Down_Distractor.gif"",""img/Fire_Down_Distractor.gif"",""img/Fire_Down_Distractor.gif"",""img/Fire_Down_Distractor.gif"",""img/Fire_Down_Distractor.gif"",""img/Fire_Down_Distractor.gif"",""img/Fire_Down_Distractor.gif"",""img/Fire_Down_Distractor.gif"",""img/Fire_Down_Distractor.gif"",""img/Fire_Down_Distractor.gif"",""img/Fire_Down_Distractor.gif"",""img/Fire_Down_Distractor.gif""]","6","targetUp_distractorsDown"
"","","","","","html-keyboard-response","66","172201","0.0-14.0-0.0-0.26","603990bc95a5a047b165f662","619531dcf66c91622fa1b861","619595d41a0f707283706585","null","","null","","","","","main_T1_ITI","","","","",""
"","","","","","visual-search-circle","67","174404","0.0-14.0-0.0-1.26","603990bc95a5a047b165f662","619531dcf66c91622fa1b861","619595d41a0f707283706585","1185.8999999910593","","s","true","[[591,227],[227,8],[8,372],[372,591]]","false","4","main_T2_Trial","s","img/Fire_Down_Target.gif","[""img/Fire_Up_Distractor.gif"",""img/Fire_Up_Distractor.gif"",""img/Fire_Up_Distractor.gif"",""img/Fire_Up_Distractor.gif"",""img/Fire_Up_Distractor.gif"",""img/Fire_Up_Distractor.gif"",""img/Fire_Up_Distractor.gif"",""img/Fire_Up_Distractor.gif"",""img/Fire_Up_Distractor.gif"",""img/Fire_Up_Distractor.gif"",""img/Fire_Up_Distractor.gif"",""img/Fire_Up_Distractor.gif""]","4","targetDown_distractorsUp"
"","","","","","html-keyboard-response","68","174406","0.0-14.0-0.0-0.27","603990bc95a5a047b165f662","619531dcf66c91622fa1b861","619595d41a0f707283706585","null","","null","","","","","main_T1_ITI","","","","",""
"","","","","","visual-search-circle","69","177114","0.0-14.0-0.0-1.27","603990bc95a5a047b165f662","619531dcf66c91622fa1b861","619595d41a0f707283706585","1695.1000000089407","","s","true","[[177,25],[9,224],[59,479],[291,599],[528,493],[594,242],[438,33]]","false","7","main_T2_Trial","s","img/Fire_Down_Target.gif","[""img/Fire_Up_Distractor.gif"",""img/Fire_Up_Distractor.gif"",""img/Fire_Up_Distractor.gif"",""img/Fire_Up_Distractor.gif"",""img/Fire_Up_Distractor.gif"",""img/Fire_Up_Distractor.gif"",""img/Fire_Up_Distractor.gif"",""img/Fire_Up_Distractor.gif"",""img/Fire_Up_Distractor.gif"",""img/Fire_Up_Distractor.gif"",""img/Fire_Up_Distractor.gif"",""img/Fire_Up_Distractor.gif""]","7","targetDown_distractorsUp"
"","","","","","html-keyboard-response","70","177116","0.0-14.0-0.0-0.28","603990bc95a5a047b165f662","619531dcf66c91622fa1b861","619595d41a0f707283706585","null","","null","","","","","main_T1_ITI","","","","",""
"","","","","","visual-search-circle","71","179274","0.0-14.0-0.0-1.28","603990bc95a5a047b165f662","619531dcf66c91622fa1b861","619595d41a0f707283706585","1147","","d","true","[[154,37],[11,217],[37,445],[217,588],[445,562],[588,382],[562,154],[382,11]]","true","8","main_T2_Trial","d","img/Fire_Down_Target.gif","[""img/Fire_Up_Distractor.gif"",""img/Fire_Up_Distractor.gif"",""img/Fire_Up_Distractor.gif"",""img/Fire_Up_Distractor.gif"",""img/Fire_Up_Distractor.gif"",""img/Fire_Up_Distractor.gif"",""img/Fire_Up_Distractor.gif"",""img/Fire_Up_Distractor.gif"",""img/Fire_Up_Distractor.gif"",""img/Fire_Up_Distractor.gif"",""img/Fire_Up_Distractor.gif"",""img/Fire_Up_Distractor.gif""]","8","targetDown_distractorsUp"
"","","","","","html-keyboard-response","72","179276","0.0-14.0-0.0-0.29","603990bc95a5a047b165f662","619531dcf66c91622fa1b861","619595d41a0f707283706585","null","","null","","","","","main_T1_ITI","","","","",""
"","","","","","visual-search-circle","73","181142","0.0-14.0-0.0-1.29","603990bc95a5a047b165f662","619531dcf66c91622fa1b861","619595d41a0f707283706585","863","","s","true","[[357,594],[597,336],[426,28],[80,95],[37,445]]","false","5","main_T2_Trial","s","img/Fire_Down_Target.gif","[""img/Fire_Up_Distractor.gif"",""img/Fire_Up_Distractor.gif"",""img/Fire_Up_Distractor.gif"",""img/Fire_Up_Distractor.gif"",""img/Fire_Up_Distractor.gif"",""img/Fire_Up_Distractor.gif"",""img/Fire_Up_Distractor.gif"",""img/Fire_Up_Distractor.gif"",""img/Fire_Up_Distractor.gif"",""img/Fire_Up_Distractor.gif"",""img/Fire_Up_Distractor.gif"",""img/Fire_Up_Distractor.gif""]","5","targetDown_distractorsUp"
"","","","","","html-keyboard-response","74","181145","0.0-14.0-0.0-0.30","603990bc95a5a047b165f662","619531dcf66c91622fa1b861","619595d41a0f707283706585","null","","null","","","","","main_T1_ITI","","","","",""
"","","","","","visual-search-circle","75","182974","0.0-14.0-0.0-1.30","603990bc95a5a047b165f662","619531dcf66c91622fa1b861","619595d41a0f707283706585","808.4000000059605","","d","true","[[2,336],[115,536],[336,597],[536,484],[597,263],[484,63],[263,2],[63,115]]","true","8","main_T2_Trial","d","img/Fire_Down_Target.gif","[""img/Fire_Up_Distractor.gif"",""img/Fire_Up_Distractor.gif"",""img/Fire_Up_Distractor.gif"",""img/Fire_Up_Distractor.gif"",""img/Fire_Up_Distractor.gif"",""img/Fire_Up_Distractor.gif"",""img/Fire_Up_Distractor.gif"",""img/Fire_Up_Distractor.gif"",""img/Fire_Up_Distractor.gif"",""img/Fire_Up_Distractor.gif"",""img/Fire_Up_Distractor.gif"",""img/Fire_Up_Distractor.gif""]","8","targetDown_distractorsUp"
"","","","","","html-keyboard-response","76","182979","0.0-14.0-0.0-0.31","603990bc95a5a047b165f662","619531dcf66c91622fa1b861","619595d41a0f707283706585","null","","null","","","","","main_T1_ITI","","","","",""
"","","","","","visual-search-circle","77","185704","0.0-14.0-0.0-1.31","603990bc95a5a047b165f662","619531dcf66c91622fa1b861","619595d41a0f707283706585","1710.7999999970198","","s","true","[[367,592],[598,326],[417,23],[73,103],[42,454]]","false","5","main_T2_Trial","s","img/Fire_Down_Target.gif","[""img/Fire_Up_Distractor.gif"",""img/Fire_Up_Distractor.gif"",""img/Fire_Up_Distractor.gif"",""img/Fire_Up_Distractor.gif"",""img/Fire_Up_Distractor.gif"",""img/Fire_Up_Distractor.gif"",""img/Fire_Up_Distractor.gif"",""img/Fire_Up_Distractor.gif"",""img/Fire_Up_Distractor.gif"",""img/Fire_Up_Distractor.gif"",""img/Fire_Up_Distractor.gif"",""img/Fire_Up_Distractor.gif""]","5","targetDown_distractorsUp"
"","","","","","html-keyboard-response","78","185706","0.0-14.0-0.0-0.32","603990bc95a5a047b165f662","619531dcf66c91622fa1b861","619595d41a0f707283706585","null","","null","","","","","main_T1_ITI","","","","",""
"","","","","","visual-search-circle","79","188144","0.0-14.0-0.0-1.32","603990bc95a5a047b165f662","619531dcf66c91622fa1b861","619595d41a0f707283706585","1422.5999999940395","","s","true","[[0,284],[100,524],[351,595],[563,444],[576,184],[381,11],[125,55]]","false","7","main_T2_Trial","s","img/Fire_Down_Target.gif","[""img/Fire_Up_Distractor.gif"",""img/Fire_Up_Distractor.gif"",""img/Fire_Up_Distractor.gif"",""img/Fire_Up_Distractor.gif"",""img/Fire_Up_Distractor.gif"",""img/Fire_Up_Distractor.gif"",""img/Fire_Up_Distractor.gif"",""img/Fire_Up_Distractor.gif"",""img/Fire_Up_Distractor.gif"",""img/Fire_Up_Distractor.gif"",""img/Fire_Up_Distractor.gif"",""img/Fire_Up_Distractor.gif""]","7","targetDown_distractorsUp"
"","","","","","html-keyboard-response","80","188145","0.0-14.0-0.0-0.33","603990bc95a5a047b165f662","619531dcf66c91622fa1b861","619595d41a0f707283706585","null","","null","","","","","main_T1_ITI","","","","",""
"","","","","","visual-search-circle","81","190099","0.0-14.0-0.0-1.33","603990bc95a5a047b165f662","619531dcf66c91622fa1b861","619595d41a0f707283706585","943.7000000029802","","d","true","[[258,597],[597,341],[341,2],[2,258]]","true","4","main_T2_Trial","d","img/Fire_Down_Target.gif","[""img/Fire_Up_Distractor.gif"",""img/Fire_Up_Distractor.gif"",""img/Fire_Up_Distractor.gif"",""img/Fire_Up_Distractor.gif"",""img/Fire_Up_Distractor.gif"",""img/Fire_Up_Distractor.gif"",""img/Fire_Up_Distractor.gif"",""img/Fire_Up_Distractor.gif"",""img/Fire_Up_Distractor.gif"",""img/Fire_Up_Distractor.gif"",""img/Fire_Up_Distractor.gif"",""img/Fire_Up_Distractor.gif""]","4","targetDown_distractorsUp"
"","","","","","html-keyboard-response","82","190113","0.0-14.0-0.0-0.34","603990bc95a5a047b165f662","619531dcf66c91622fa1b861","619595d41a0f707283706585","null","","null","","","","","main_T1_ITI","","","","",""
"","","","","","visual-search-circle","83","192029","0.0-14.0-0.0-1.34","603990bc95a5a047b165f662","619531dcf66c91622fa1b861","619595d41a0f707283706585","900","","d","true","[[300,0],[0,299],[299,600],[600,300]]","true","4","main_T2_Trial","d","img/Fire_Down_Target.gif","[""img/Fire_Up_Distractor.gif"",""img/Fire_Up_Distractor.gif"",""img/Fire_Up_Distractor.gif"",""img/Fire_Up_Distractor.gif"",""img/Fire_Up_Distractor.gif"",""img/Fire_Up_Distractor.gif"",""img/Fire_Up_Distractor.gif"",""img/Fire_Up_Distractor.gif"",""img/Fire_Up_Distractor.gif"",""img/Fire_Up_Distractor.gif"",""img/Fire_Up_Distractor.gif"",""img/Fire_Up_Distractor.gif""]","4","targetDown_distractorsUp"
"","","","","","html-keyboard-response","84","192031","0.0-14.0-0.0-0.35","603990bc95a5a047b165f662","619531dcf66c91622fa1b861","619595d41a0f707283706585","null","","null","","","","","main_T1_ITI","","","","",""
"","","","","","visual-search-circle","85","193912","0.0-14.0-0.0-1.35","603990bc95a5a047b165f662","619531dcf66c91622fa1b861","619595d41a0f707283706585","866.6000000089407","","s","true","[[54,472],[472,545],[545,127],[127,54]]","false","4","main_T2_Trial","s","img/Fire_Down_Target.gif","[""img/Fire_Up_Distractor.gif"",""img/Fire_Up_Distractor.gif"",""img/Fire_Up_Distractor.gif"",""img/Fire_Up_Distractor.gif"",""img/Fire_Up_Distractor.gif"",""img/Fire_Up_Distractor.gif"",""img/Fire_Up_Distractor.gif"",""img/Fire_Up_Distractor.gif"",""img/Fire_Up_Distractor.gif"",""img/Fire_Up_Distractor.gif"",""img/Fire_Up_Distractor.gif"",""img/Fire_Up_Distractor.gif""]","4","targetDown_distractorsUp"
"","","","","","html-keyboard-response","86","193914","0.0-14.0-0.0-0.36","603990bc95a5a047b165f662","619531dcf66c91622fa1b861","619595d41a0f707283706585","null","","null","","","","","main_T1_ITI","","","","",""
"","","","","","visual-search-circle","87","195681","0.0-14.0-0.0-1.36","603990bc95a5a047b165f662","619531dcf66c91622fa1b861","619595d41a0f707283706585","750.6000000089407","","d","true","[[426,28],[197,18],[28,173],[18,402],[173,571],[402,581],[571,426],[581,197]]","true","8","main_T2_Trial","d","img/Fire_Down_Target.gif","[""img/Fire_Up_Distractor.gif"",""img/Fire_Up_Distractor.gif"",""img/Fire_Up_Distractor.gif"",""img/Fire_Up_Distractor.gif"",""img/Fire_Up_Distractor.gif"",""img/Fire_Up_Distractor.gif"",""img/Fire_Up_Distractor.gif"",""img/Fire_Up_Distractor.gif"",""img/Fire_Up_Distractor.gif"",""img/Fire_Up_Distractor.gif"",""img/Fire_Up_Distractor.gif"",""img/Fire_Up_Distractor.gif""]","8","targetDown_distractorsUp"
"","","","","","html-keyboard-response","88","195682","0.0-14.0-0.0-0.37","603990bc95a5a047b165f662","619531dcf66c91622fa1b861","619595d41a0f707283706585","null","","null","","","","","main_T1_ITI","","","","",""
"","","","","","visual-search-circle","89","197362","0.0-14.0-0.0-1.37","603990bc95a5a047b165f662","619531dcf66c91622fa1b861","619595d41a0f707283706585","666.5999999940395","","d","true","[[539,480],[545,127],[212,13],[0,294],[202,583]]","true","5","main_T2_Trial","d","img/Fire_Down_Target.gif","[""img/Fire_Up_Distractor.gif"",""img/Fire_Up_Distractor.gif"",""img/Fire_Up_Distractor.gif"",""img/Fire_Up_Distractor.gif"",""img/Fire_Up_Distractor.gif"",""img/Fire_Up_Distractor.gif"",""img/Fire_Up_Distractor.gif"",""img/Fire_Up_Distractor.gif"",""img/Fire_Up_Distractor.gif"",""img/Fire_Up_Distractor.gif"",""img/Fire_Up_Distractor.gif"",""img/Fire_Up_Distractor.gif""]","5","targetDown_distractorsUp"
"","","","","","html-keyboard-response","90","197364","0.0-14.0-0.0-0.38","603990bc95a5a047b165f662","619531dcf66c91622fa1b861","619595d41a0f707283706585","null","","null","","","","","main_T1_ITI","","","","",""
"","","","","","visual-search-circle","91","199153","0.0-14.0-0.0-1.38","603990bc95a5a047b165f662","619531dcf66c91622fa1b861","619595d41a0f707283706585","768.3999999910593","","d","true","[[212,586],[504,519],[592,232],[387,13],[95,80],[7,367]]","true","6","main_T2_Trial","d","img/Fire_Up_Target.gif","[""img/Fire_Down_Distractor.gif"",""img/Fire_Down_Distractor.gif"",""img/Fire_Down_Distractor.gif"",""img/Fire_Down_Distractor.gif"",""img/Fire_Down_Distractor.gif"",""img/Fire_Down_Distractor.gif"",""img/Fire_Down_Distractor.gif"",""img/Fire_Down_Distractor.gif"",""img/Fire_Down_Distractor.gif"",""img/Fire_Down_Distractor.gif"",""img/Fire_Down_Distractor.gif"",""img/Fire_Down_Distractor.gif""]","6","targetUp_distractorsDown"
"","","","","","html-keyboard-response","92","200765","0.0-14.0-0.0-0.39","603990bc95a5a047b165f662","619531dcf66c91622fa1b861","619595d41a0f707283706585","1611.2000000029802","Wow! You've completed 40 out of 160 trials! </p> <p>  </p><p> Take a quick break, then press any key when you're ready to continue."," ","","","","","main_T1_ITI","","","","",""
"","","","","","visual-search-circle","93","203265","0.0-14.0-0.0-1.39","603990bc95a5a047b165f662","619531dcf66c91622fa1b861","619595d41a0f707283706585","1486.7000000029802","","s","true","[[585,207],[300,0],[14,207],[123,542],[476,542]]","false","5","main_T2_Trial","s","img/Fire_Down_Target.gif","[""img/Fire_Up_Distractor.gif"",""img/Fire_Up_Distractor.gif"",""img/Fire_Up_Distractor.gif"",""img/Fire_Up_Distractor.gif"",""img/Fire_Up_Distractor.gif"",""img/Fire_Up_Distractor.gif"",""img/Fire_Up_Distractor.gif"",""img/Fire_Up_Distractor.gif"",""img/Fire_Up_Distractor.gif"",""img/Fire_Up_Distractor.gif"",""img/Fire_Up_Distractor.gif"",""img/Fire_Up_Distractor.gif""]","5","targetDown_distractorsUp"
"","","","","","html-keyboard-response","94","203277","0.0-14.0-0.0-0.40","603990bc95a5a047b165f662","619531dcf66c91622fa1b861","619595d41a0f707283706585","null","","null","","","","","main_T1_ITI","","","","",""
"","","","","","visual-search-circle","95","205245","0.0-14.0-0.0-1.40","603990bc95a5a047b165f662","619531dcf66c91622fa1b861","619595d41a0f707283706585","956.2999999970198","","d","true","[[60,480],[291,599],[529,493],[594,241],[437,33],[177,26],[9,225]]","true","7","main_T2_Trial","d","img/Fire_Up_Target.gif","[""img/Fire_Down_Distractor.gif"",""img/Fire_Down_Distractor.gif"",""img/Fire_Down_Distractor.gif"",""img/Fire_Down_Distractor.gif"",""img/Fire_Down_Distractor.gif"",""img/Fire_Down_Distractor.gif"",""img/Fire_Down_Distractor.gif"",""img/Fire_Down_Distractor.gif"",""img/Fire_Down_Distractor.gif"",""img/Fire_Down_Distractor.gif"",""img/Fire_Down_Distractor.gif"",""img/Fire_Down_Distractor.gif""]","7","targetUp_distractorsDown"
"","","","","","html-keyboard-response","96","205247","0.0-14.0-0.0-0.41","603990bc95a5a047b165f662","619531dcf66c91622fa1b861","619595d41a0f707283706585","null","","null","","","","","main_T1_ITI","","","","",""
"","","","","","visual-search-circle","97","207003","0.0-14.0-0.0-1.41","603990bc95a5a047b165f662","619531dcf66c91622fa1b861","619595d41a0f707283706585","744.5","","s","true","[[488,66],[192,19],[3,253],[111,533],[407,580],[596,346]]","false","6","main_T2_Trial","s","img/Fire_Down_Target.gif","[""img/Fire_Up_Distractor.gif"",""img/Fire_Up_Distractor.gif"",""img/Fire_Up_Distractor.gif"",""img/Fire_Up_Distractor.gif"",""img/Fire_Up_Distractor.gif"",""img/Fire_Up_Distractor.gif"",""img/Fire_Up_Distractor.gif"",""img/Fire_Up_Distractor.gif"",""img/Fire_Up_Distractor.gif"",""img/Fire_Up_Distractor.gif"",""img/Fire_Up_Distractor.gif"",""img/Fire_Up_Distractor.gif""]","6","targetDown_distractorsUp"
"","","","","","html-keyboard-response","98","207005","0.0-14.0-0.0-0.42","603990bc95a5a047b165f662","619531dcf66c91622fa1b861","619595d41a0f707283706585","null","","null","","","","","main_T1_ITI","","","","",""
"","","","","","visual-search-circle","99","208770","0.0-14.0-0.0-1.42","603990bc95a5a047b165f662","619531dcf66c91622fa1b861","619595d41a0f707283706585","759.5999999940395","","d","true","[[367,7],[113,64],[0,299],[112,534],[366,592],[569,430],[570,170]]","true","7","main_T2_Trial","d","img/Fire_Up_Target.gif","[""img/Fire_Down_Distractor.gif"",""img/Fire_Down_Distractor.gif"",""img/Fire_Down_Distractor.gif"",""img/Fire_Down_Distractor.gif"",""img/Fire_Down_Distractor.gif"",""img/Fire_Down_Distractor.gif"",""img/Fire_Down_Distractor.gif"",""img/Fire_Down_Distractor.gif"",""img/Fire_Down_Distractor.gif"",""img/Fire_Down_Distractor.gif"",""img/Fire_Down_Distractor.gif"",""img/Fire_Down_Distractor.gif""]","7","targetUp_distractorsDown"
"","","","","","html-keyboard-response","100","208776","0.0-14.0-0.0-0.43","603990bc95a5a047b165f662","619531dcf66c91622fa1b861","619595d41a0f707283706585","null","","null","","","","","main_T1_ITI","","","","",""
"","","","","","visual-search-circle","101","210829","0.0-14.0-0.0-1.43","603990bc95a5a047b165f662","619531dcf66c91622fa1b861","619595d41a0f707283706585","1044.199999988079","","d","true","[[402,581],[595,352],[492,70],[197,18],[4,247],[107,529]]","true","6","main_T2_Trial","d","img/Fire_Up_Target.gif","[""img/Fire_Down_Distractor.gif"",""img/Fire_Down_Distractor.gif"",""img/Fire_Down_Distractor.gif"",""img/Fire_Down_Distractor.gif"",""img/Fire_Down_Distractor.gif"",""img/Fire_Down_Distractor.gif"",""img/Fire_Down_Distractor.gif"",""img/Fire_Down_Distractor.gif"",""img/Fire_Down_Distractor.gif"",""img/Fire_Down_Distractor.gif"",""img/Fire_Down_Distractor.gif"",""img/Fire_Down_Distractor.gif""]","6","targetUp_distractorsDown"
"","","","","","html-keyboard-response","102","210831","0.0-14.0-0.0-0.44","603990bc95a5a047b165f662","619531dcf66c91622fa1b861","619595d41a0f707283706585","null","","null","","","","","main_T1_ITI","","","","",""
"","","","","","visual-search-circle","103","213180","0.0-14.0-0.0-1.44","603990bc95a5a047b165f662","619531dcf66c91622fa1b861","619595d41a0f707283706585","1333.7000000029802","","d","true","[[352,595],[563,443],[576,183],[381,11],[124,56],[0,285],[101,524]]","true","7","main_T2_Trial","d","img/Fire_Up_Target.gif","[""img/Fire_Down_Distractor.gif"",""img/Fire_Down_Distractor.gif"",""img/Fire_Down_Distractor.gif"",""img/Fire_Down_Distractor.gif"",""img/Fire_Down_Distractor.gif"",""img/Fire_Down_Distractor.gif"",""img/Fire_Down_Distractor.gif"",""img/Fire_Down_Distractor.gif"",""img/Fire_Down_Distractor.gif"",""img/Fire_Down_Distractor.gif"",""img/Fire_Down_Distractor.gif"",""img/Fire_Down_Distractor.gif""]","7","targetUp_distractorsDown"
"","","","","","html-keyboard-response","104","213183","0.0-14.0-0.0-0.45","603990bc95a5a047b165f662","619531dcf66c91622fa1b861","619595d41a0f707283706585","null","","null","","","","","main_T1_ITI","","","","",""
"","","","","","visual-search-circle","105","215381","0.0-14.0-0.0-1.45","603990bc95a5a047b165f662","619531dcf66c91622fa1b861","619595d41a0f707283706585","1179.0999999940395","","s","true","[[392,585],[580,405],[557,146],[340,2],[92,83],[1,326],[134,550]]","false","7","main_T2_Trial","s","img/Fire_Up_Target.gif","[""img/Fire_Down_Distractor.gif"",""img/Fire_Down_Distractor.gif"",""img/Fire_Down_Distractor.gif"",""img/Fire_Down_Distractor.gif"",""img/Fire_Down_Distractor.gif"",""img/Fire_Down_Distractor.gif"",""img/Fire_Down_Distractor.gif"",""img/Fire_Down_Distractor.gif"",""img/Fire_Down_Distractor.gif"",""img/Fire_Down_Distractor.gif"",""img/Fire_Down_Distractor.gif"",""img/Fire_Down_Distractor.gif""]","7","targetUp_distractorsDown"
"","","","","","html-keyboard-response","106","215384","0.0-14.0-0.0-0.46","603990bc95a5a047b165f662","619531dcf66c91622fa1b861","619595d41a0f707283706585","null","","null","","","","","main_T1_ITI","","","","",""
"","","","","","visual-search-circle","107","217725","0.0-14.0-0.0-1.46","603990bc95a5a047b165f662","619531dcf66c91622fa1b861","619595d41a0f707283706585","1327.300000011921","","s","true","[[377,10],[121,58],[0,288],[104,527],[355,594],[565,440],[574,180]]","false","7","main_T2_Trial","s","img/Fire_Down_Target.gif","[""img/Fire_Up_Distractor.gif"",""img/Fire_Up_Distractor.gif"",""img/Fire_Up_Distractor.gif"",""img/Fire_Up_Distractor.gif"",""img/Fire_Up_Distractor.gif"",""img/Fire_Up_Distractor.gif"",""img/Fire_Up_Distractor.gif"",""img/Fire_Up_Distractor.gif"",""img/Fire_Up_Distractor.gif"",""img/Fire_Up_Distractor.gif"",""img/Fire_Up_Distractor.gif"",""img/Fire_Up_Distractor.gif""]","7","targetDown_distractorsUp"
"","","","","","html-keyboard-response","108","217728","0.0-14.0-0.0-0.47","603990bc95a5a047b165f662","619531dcf66c91622fa1b861","619595d41a0f707283706585","null","","null","","","","","main_T1_ITI","","","","",""
"","","","","","visual-search-circle","109","219851","0.0-14.0-0.0-1.47","603990bc95a5a047b165f662","619531dcf66c91622fa1b861","619595d41a0f707283706585","1112.5","","s","true","[[60,480],[480,539],[539,119],[119,60]]","false","4","main_T2_Trial","s","img/Fire_Down_Target.gif","[""img/Fire_Up_Distractor.gif"",""img/Fire_Up_Distractor.gif"",""img/Fire_Up_Distractor.gif"",""img/Fire_Up_Distractor.gif"",""img/Fire_Up_Distractor.gif"",""img/Fire_Up_Distractor.gif"",""img/Fire_Up_Distractor.gif"",""img/Fire_Up_Distractor.gif"",""img/Fire_Up_Distractor.gif"",""img/Fire_Up_Distractor.gif"",""img/Fire_Up_Distractor.gif"",""img/Fire_Up_Distractor.gif""]","4","targetDown_distractorsUp"
"","","","","","html-keyboard-response","110","219855","0.0-14.0-0.0-0.48","603990bc95a5a047b165f662","619531dcf66c91622fa1b861","619595d41a0f707283706585","null","","null","","","","","main_T1_ITI","","","","",""
"","","","","","visual-search-circle","111","222394","0.0-14.0-0.0-1.48","603990bc95a5a047b165f662","619531dcf66c91622fa1b861","619595d41a0f707283706585","1529.9000000059605","","s","true","[[352,595],[545,472],[595,247],[472,54],[247,4],[54,127],[4,352],[127,545]]","false","8","main_T2_Trial","s","img/Fire_Up_Target.gif","[""img/Fire_Down_Distractor.gif"",""img/Fire_Down_Distractor.gif"",""img/Fire_Down_Distractor.gif"",""img/Fire_Down_Distractor.gif"",""img/Fire_Down_Distractor.gif"",""img/Fire_Down_Distractor.gif"",""img/Fire_Down_Distractor.gif"",""img/Fire_Down_Distractor.gif"",""img/Fire_Down_Distractor.gif"",""img/Fire_Down_Distractor.gif"",""img/Fire_Down_Distractor.gif"",""img/Fire_Down_Distractor.gif""]","8","targetUp_distractorsDown"
"","","","","","html-keyboard-response","112","222404","0.0-14.0-0.0-0.49","603990bc95a5a047b165f662","619531dcf66c91622fa1b861","619595d41a0f707283706585","null","","null","","","","","main_T1_ITI","","","","",""
"","","","","","visual-search-circle","113","224953","0.0-14.0-0.0-1.49","603990bc95a5a047b165f662","619531dcf66c91622fa1b861","619595d41a0f707283706585","1533.699999988079","","s","true","[[488,533],[596,253],[407,19],[111,66],[3,346],[192,580]]","false","6","main_T2_Trial","s","img/Fire_Up_Target.gif","[""img/Fire_Down_Distractor.gif"",""img/Fire_Down_Distractor.gif"",""img/Fire_Down_Distractor.gif"",""img/Fire_Down_Distractor.gif"",""img/Fire_Down_Distractor.gif"",""img/Fire_Down_Distractor.gif"",""img/Fire_Down_Distractor.gif"",""img/Fire_Down_Distractor.gif"",""img/Fire_Down_Distractor.gif"",""img/Fire_Down_Distractor.gif"",""img/Fire_Down_Distractor.gif"",""img/Fire_Down_Distractor.gif""]","6","targetUp_distractorsDown"
"","","","","","html-keyboard-response","114","224957","0.0-14.0-0.0-0.50","603990bc95a5a047b165f662","619531dcf66c91622fa1b861","619595d41a0f707283706585","null","","null","","","","","main_T1_ITI","","","","",""
"","","","","","visual-search-circle","115","227019","0.0-14.0-0.0-1.50","603990bc95a5a047b165f662","619531dcf66c91622fa1b861","619595d41a0f707283706585","1045.199999988079","","d","true","[[407,19],[177,25],[19,192],[25,422],[192,580],[422,574],[580,407],[574,177]]","true","8","main_T2_Trial","d","img/Fire_Down_Target.gif","[""img/Fire_Up_Distractor.gif"",""img/Fire_Up_Distractor.gif"",""img/Fire_Up_Distractor.gif"",""img/Fire_Up_Distractor.gif"",""img/Fire_Up_Distractor.gif"",""img/Fire_Up_Distractor.gif"",""img/Fire_Up_Distractor.gif"",""img/Fire_Up_Distractor.gif"",""img/Fire_Up_Distractor.gif"",""img/Fire_Up_Distractor.gif"",""img/Fire_Up_Distractor.gif"",""img/Fire_Up_Distractor.gif""]","8","targetDown_distractorsUp"
"","","","","","html-keyboard-response","116","227021","0.0-14.0-0.0-0.51","603990bc95a5a047b165f662","619531dcf66c91622fa1b861","619595d41a0f707283706585","null","","null","","","","","main_T1_ITI","","","","",""
"","","","","","visual-search-circle","117","228928","0.0-14.0-0.0-1.51","603990bc95a5a047b165f662","619531dcf66c91622fa1b861","619595d41a0f707283706585","902.1000000089407","","s","true","[[30,168],[51,467],[320,599],[569,431],[548,132],[279,0]]","false","6","main_T2_Trial","s","img/Fire_Down_Target.gif","[""img/Fire_Up_Distractor.gif"",""img/Fire_Up_Distractor.gif"",""img/Fire_Up_Distractor.gif"",""img/Fire_Up_Distractor.gif"",""img/Fire_Up_Distractor.gif"",""img/Fire_Up_Distractor.gif"",""img/Fire_Up_Distractor.gif"",""img/Fire_Up_Distractor.gif"",""img/Fire_Up_Distractor.gif"",""img/Fire_Up_Distractor.gif"",""img/Fire_Up_Distractor.gif"",""img/Fire_Up_Distractor.gif""]","6","targetDown_distractorsUp"
"","","","","","html-keyboard-response","118","228929","0.0-14.0-0.0-0.52","603990bc95a5a047b165f662","619531dcf66c91622fa1b861","619595d41a0f707283706585","null","","null","","","","","main_T1_ITI","","","","",""
"","","","","","visual-search-circle","119","230970","0.0-14.0-0.0-1.52","603990bc95a5a047b165f662","619531dcf66c91622fa1b861","619595d41a0f707283706585","1028.3999999910593","","d","true","[[458,45],[232,7],[45,141],[7,367],[141,554],[367,592],[554,458],[592,232]]","true","8","main_T2_Trial","d","img/Fire_Up_Target.gif","[""img/Fire_Down_Distractor.gif"",""img/Fire_Down_Distractor.gif"",""img/Fire_Down_Distractor.gif"",""img/Fire_Down_Distractor.gif"",""img/Fire_Down_Distractor.gif"",""img/Fire_Down_Distractor.gif"",""img/Fire_Down_Distractor.gif"",""img/Fire_Down_Distractor.gif"",""img/Fire_Down_Distractor.gif"",""img/Fire_Down_Distractor.gif"",""img/Fire_Down_Distractor.gif"",""img/Fire_Down_Distractor.gif""]","8","targetUp_distractorsDown"
"","","","","","html-keyboard-response","120","230974","0.0-14.0-0.0-0.53","603990bc95a5a047b165f662","619531dcf66c91622fa1b861","619595d41a0f707283706585","null","","null","","","","","main_T1_ITI","","","","",""
"","","","","","visual-search-circle","121","233199","0.0-14.0-0.0-1.53","603990bc95a5a047b165f662","619531dcf66c91622fa1b861","619595d41a0f707283706585","1205.5999999940395","","s","true","[[310,0],[18,197],[115,536],[467,548],[588,217]]","false","5","main_T2_Trial","s","img/Fire_Down_Target.gif","[""img/Fire_Up_Distractor.gif"",""img/Fire_Up_Distractor.gif"",""img/Fire_Up_Distractor.gif"",""img/Fire_Up_Distractor.gif"",""img/Fire_Up_Distractor.gif"",""img/Fire_Up_Distractor.gif"",""img/Fire_Up_Distractor.gif"",""img/Fire_Up_Distractor.gif"",""img/Fire_Up_Distractor.gif"",""img/Fire_Up_Distractor.gif"",""img/Fire_Up_Distractor.gif"",""img/Fire_Up_Distractor.gif""]","5","targetDown_distractorsUp"
"","","","","","html-keyboard-response","122","233201","0.0-14.0-0.0-0.54","603990bc95a5a047b165f662","619531dcf66c91622fa1b861","619595d41a0f707283706585","null","","null","","","","","main_T1_ITI","","","","",""
"","","","","","visual-search-circle","123","235266","0.0-14.0-0.0-1.54","603990bc95a5a047b165f662","619531dcf66c91622fa1b861","619595d41a0f707283706585","1044.7999999970198","","s","true","[[567,163],[360,6],[107,69],[0,306],[118,538],[373,590],[573,424]]","false","7","main_T2_Trial","s","img/Fire_Up_Target.gif","[""img/Fire_Down_Distractor.gif"",""img/Fire_Down_Distractor.gif"",""img/Fire_Down_Distractor.gif"",""img/Fire_Down_Distractor.gif"",""img/Fire_Down_Distractor.gif"",""img/Fire_Down_Distractor.gif"",""img/Fire_Down_Distractor.gif"",""img/Fire_Down_Distractor.gif"",""img/Fire_Down_Distractor.gif"",""img/Fire_Down_Distractor.gif"",""img/Fire_Down_Distractor.gif"",""img/Fire_Down_Distractor.gif""]","7","targetUp_distractorsDown"
"","","","","","html-keyboard-response","124","235270","0.0-14.0-0.0-0.55","603990bc95a5a047b165f662","619531dcf66c91622fa1b861","619595d41a0f707283706585","null","","null","","","","","main_T1_ITI","","","","",""
"","","","","","visual-search-circle","125","237132","0.0-14.0-0.0-1.55","603990bc95a5a047b165f662","619531dcf66c91622fa1b861","619595d41a0f707283706585","844.7000000029802","","s","true","[[107,70],[1,273],[70,492],[273,598],[492,529],[598,326],[529,107],[326,1]]","false","8","main_T2_Trial","s","img/Fire_Up_Target.gif","[""img/Fire_Down_Distractor.gif"",""img/Fire_Down_Distractor.gif"",""img/Fire_Down_Distractor.gif"",""img/Fire_Down_Distractor.gif"",""img/Fire_Down_Distractor.gif"",""img/Fire_Down_Distractor.gif"",""img/Fire_Down_Distractor.gif"",""img/Fire_Down_Distractor.gif"",""img/Fire_Down_Distractor.gif"",""img/Fire_Down_Distractor.gif"",""img/Fire_Down_Distractor.gif"",""img/Fire_Down_Distractor.gif""]","8","targetUp_distractorsDown"
"","","","","","html-keyboard-response","126","237133","0.0-14.0-0.0-0.56","603990bc95a5a047b165f662","619531dcf66c91622fa1b861","619595d41a0f707283706585","null","","null","","","","","main_T1_ITI","","","","",""
"","","","","","visual-search-circle","127","239129","0.0-14.0-0.0-1.56","603990bc95a5a047b165f662","619531dcf66c91622fa1b861","619595d41a0f707283706585","989.6999999880791","","s","true","[[392,585],[585,207],[207,14],[14,392]]","false","4","main_T2_Trial","s","img/Fire_Down_Target.gif","[""img/Fire_Up_Distractor.gif"",""img/Fire_Up_Distractor.gif"",""img/Fire_Up_Distractor.gif"",""img/Fire_Up_Distractor.gif"",""img/Fire_Up_Distractor.gif"",""img/Fire_Up_Distractor.gif"",""img/Fire_Up_Distractor.gif"",""img/Fire_Up_Distractor.gif"",""img/Fire_Up_Distractor.gif"",""img/Fire_Up_Distractor.gif"",""img/Fire_Up_Distractor.gif"",""img/Fire_Up_Distractor.gif""]","4","targetDown_distractorsUp"
"","","","","","html-keyboard-response","128","239132","0.0-14.0-0.0-0.57","603990bc95a5a047b165f662","619531dcf66c91622fa1b861","619595d41a0f707283706585","null","","null","","","","","main_T1_ITI","","","","",""
"","","","","","visual-search-circle","129","241079","0.0-14.0-0.0-1.57","603990bc95a5a047b165f662","619531dcf66c91622fa1b861","619595d41a0f707283706585","931.1000000089407","","d","true","[[315,599],[567,436],[551,136],[284,0],[32,163],[48,463]]","true","6","main_T2_Trial","d","img/Fire_Down_Target.gif","[""img/Fire_Up_Distractor.gif"",""img/Fire_Up_Distractor.gif"",""img/Fire_Up_Distractor.gif"",""img/Fire_Up_Distractor.gif"",""img/Fire_Up_Distractor.gif"",""img/Fire_Up_Distractor.gif"",""img/Fire_Up_Distractor.gif"",""img/Fire_Up_Distractor.gif"",""img/Fire_Up_Distractor.gif"",""img/Fire_Up_Distractor.gif"",""img/Fire_Up_Distractor.gif"",""img/Fire_Up_Distractor.gif""]","6","targetDown_distractorsUp"
"","","","","","html-keyboard-response","130","241080","0.0-14.0-0.0-0.58","603990bc95a5a047b165f662","619531dcf66c91622fa1b861","619595d41a0f707283706585","null","","null","","","","","main_T1_ITI","","","","",""
"","","","","","visual-search-circle","131","242874","0.0-14.0-0.0-1.58","603990bc95a5a047b165f662","619531dcf66c91622fa1b861","619595d41a0f707283706585","777.3999999910593","","d","true","[[599,305],[454,42],[154,37],[0,294],[145,557],[445,562]]","true","6","main_T2_Trial","d","img/Fire_Up_Target.gif","[""img/Fire_Down_Distractor.gif"",""img/Fire_Down_Distractor.gif"",""img/Fire_Down_Distractor.gif"",""img/Fire_Down_Distractor.gif"",""img/Fire_Down_Distractor.gif"",""img/Fire_Down_Distractor.gif"",""img/Fire_Down_Distractor.gif"",""img/Fire_Down_Distractor.gif"",""img/Fire_Down_Distractor.gif"",""img/Fire_Down_Distractor.gif"",""img/Fire_Down_Distractor.gif"",""img/Fire_Down_Distractor.gif""]","6","targetUp_distractorsDown"
"","","","","","html-keyboard-response","132","243955","0.0-14.0-0.0-0.59","603990bc95a5a047b165f662","619531dcf66c91622fa1b861","619595d41a0f707283706585","1081.1000000089407","Wow! You've completed 60 out of 160 trials! </p> <p>  </p><p> Take a quick break, then press any key when you're ready to continue."," ","","","","","main_T1_ITI","","","","",""
"","","","","","visual-search-circle","133","246024","0.0-14.0-0.0-1.59","603990bc95a5a047b165f662","619531dcf66c91622fa1b861","619595d41a0f707283706585","1051.9000000059605","","d","true","[[576,417],[496,73],[145,42],[7,367],[273,598]]","true","5","main_T2_Trial","d","img/Fire_Up_Target.gif","[""img/Fire_Down_Distractor.gif"",""img/Fire_Down_Distractor.gif"",""img/Fire_Down_Distractor.gif"",""img/Fire_Down_Distractor.gif"",""img/Fire_Down_Distractor.gif"",""img/Fire_Down_Distractor.gif"",""img/Fire_Down_Distractor.gif"",""img/Fire_Down_Distractor.gif"",""img/Fire_Down_Distractor.gif"",""img/Fire_Down_Distractor.gif"",""img/Fire_Down_Distractor.gif"",""img/Fire_Down_Distractor.gif""]","5","targetUp_distractorsDown"
"","","","","","html-keyboard-response","134","246026","0.0-14.0-0.0-0.60","603990bc95a5a047b165f662","619531dcf66c91622fa1b861","619595d41a0f707283706585","null","","null","","","","","main_T1_ITI","","","","",""
"","","","","","visual-search-circle","135","247820","0.0-14.0-0.0-1.60","603990bc95a5a047b165f662","619531dcf66c91622fa1b861","619595d41a0f707283706585","788.0999999940395","","s","true","[[588,382],[562,154],[382,11],[154,37],[11,217],[37,445],[217,588],[445,562]]","false","8","main_T2_Trial","s","img/Fire_Up_Target.gif","[""img/Fire_Down_Distractor.gif"",""img/Fire_Down_Distractor.gif"",""img/Fire_Down_Distractor.gif"",""img/Fire_Down_Distractor.gif"",""img/Fire_Down_Distractor.gif"",""img/Fire_Down_Distractor.gif"",""img/Fire_Down_Distractor.gif"",""img/Fire_Down_Distractor.gif"",""img/Fire_Down_Distractor.gif"",""img/Fire_Down_Distractor.gif"",""img/Fire_Down_Distractor.gif"",""img/Fire_Down_Distractor.gif""]","8","targetUp_distractorsDown"
"","","","","","html-keyboard-response","136","247831","0.0-14.0-0.0-0.61","603990bc95a5a047b165f662","619531dcf66c91622fa1b861","619595d41a0f707283706585","null","","null","","","","","main_T1_ITI","","","","",""
"","","","","","visual-search-circle","137","249990","0.0-14.0-0.0-1.61","603990bc95a5a047b165f662","619531dcf66c91622fa1b861","619595d41a0f707283706585","1140.4000000059605","","s","true","[[564,159],[310,0],[45,141],[35,440],[289,599],[554,458]]","false","6","main_T2_Trial","s","img/Fire_Up_Target.gif","[""img/Fire_Down_Distractor.gif"",""img/Fire_Down_Distractor.gif"",""img/Fire_Down_Distractor.gif"",""img/Fire_Down_Distractor.gif"",""img/Fire_Down_Distractor.gif"",""img/Fire_Down_Distractor.gif"",""img/Fire_Down_Distractor.gif"",""img/Fire_Down_Distractor.gif"",""img/Fire_Down_Distractor.gif"",""img/Fire_Down_Distractor.gif"",""img/Fire_Down_Distractor.gif"",""img/Fire_Down_Distractor.gif""]","6","targetUp_distractorsDown"
"","","","","","html-keyboard-response","138","249994","0.0-14.0-0.0-0.62","603990bc95a5a047b165f662","619531dcf66c91622fa1b861","619595d41a0f707283706585","null","","null","","","","","main_T1_ITI","","","","",""
"","","","","","visual-search-circle","139","252009","0.0-14.0-0.0-1.62","603990bc95a5a047b165f662","619531dcf66c91622fa1b861","619595d41a0f707283706585","1010.2999999970198","","s","true","[[407,580],[580,192],[192,19],[19,407]]","false","4","main_T2_Trial","s","img/Fire_Up_Target.gif","[""img/Fire_Down_Distractor.gif"",""img/Fire_Down_Distractor.gif"",""img/Fire_Down_Distractor.gif"",""img/Fire_Down_Distractor.gif"",""img/Fire_Down_Distractor.gif"",""img/Fire_Down_Distractor.gif"",""img/Fire_Down_Distractor.gif"",""img/Fire_Down_Distractor.gif"",""img/Fire_Down_Distractor.gif"",""img/Fire_Down_Distractor.gif"",""img/Fire_Down_Distractor.gif"",""img/Fire_Down_Distractor.gif""]","4","targetUp_distractorsDown"
"","","","","","html-keyboard-response","140","252011","0.0-14.0-0.0-0.63","603990bc95a5a047b165f662","619531dcf66c91622fa1b861","619595d41a0f707283706585","null","","null","","","","","main_T1_ITI","","","","",""
"","","","","","visual-search-circle","141","253840","0.0-14.0-0.0-1.63","603990bc95a5a047b165f662","619531dcf66c91622fa1b861","619595d41a0f707283706585","823.2999999970198","","s","true","[[431,569],[569,168],[168,30],[30,431]]","false","4","main_T2_Trial","s","img/Fire_Up_Target.gif","[""img/Fire_Down_Distractor.gif"",""img/Fire_Down_Distractor.gif"",""img/Fire_Down_Distractor.gif"",""img/Fire_Down_Distractor.gif"",""img/Fire_Down_Distractor.gif"",""img/Fire_Down_Distractor.gif"",""img/Fire_Down_Distractor.gif"",""img/Fire_Down_Distractor.gif"",""img/Fire_Down_Distractor.gif"",""img/Fire_Down_Distractor.gif"",""img/Fire_Down_Distractor.gif"",""img/Fire_Down_Distractor.gif""]","4","targetUp_distractorsDown"
"","","","","","html-keyboard-response","142","253841","0.0-14.0-0.0-0.64","603990bc95a5a047b165f662","619531dcf66c91622fa1b861","619595d41a0f707283706585","null","","null","","","","","main_T1_ITI","","","","",""
"","","","","","visual-search-circle","143","255947","0.0-14.0-0.0-1.64","603990bc95a5a047b165f662","619531dcf66c91622fa1b861","619595d41a0f707283706585","1089.5","","s","true","[[99,522],[392,585],[593,362],[500,77],[207,14],[6,237]]","false","6","main_T2_Trial","s","img/Fire_Down_Target.gif","[""img/Fire_Up_Distractor.gif"",""img/Fire_Up_Distractor.gif"",""img/Fire_Up_Distractor.gif"",""img/Fire_Up_Distractor.gif"",""img/Fire_Up_Distractor.gif"",""img/Fire_Up_Distractor.gif"",""img/Fire_Up_Distractor.gif"",""img/Fire_Up_Distractor.gif"",""img/Fire_Up_Distractor.gif"",""img/Fire_Up_Distractor.gif"",""img/Fire_Up_Distractor.gif"",""img/Fire_Up_Distractor.gif""]","6","targetDown_distractorsUp"
"","","","","","html-keyboard-response","144","255949","0.0-14.0-0.0-0.65","603990bc95a5a047b165f662","619531dcf66c91622fa1b861","619595d41a0f707283706585","null","","null","","","","","main_T1_ITI","","","","",""
"","","","","","visual-search-circle","145","257790","0.0-14.0-0.0-1.65","603990bc95a5a047b165f662","619531dcf66c91622fa1b861","619595d41a0f707283706585","821.6999999880791","","s","true","[[484,536],[597,258],[412,21],[115,63],[2,341],[187,578]]","false","6","main_T2_Trial","s","img/Fire_Down_Target.gif","[""img/Fire_Up_Distractor.gif"",""img/Fire_Up_Distractor.gif"",""img/Fire_Up_Distractor.gif"",""img/Fire_Up_Distractor.gif"",""img/Fire_Up_Distractor.gif"",""img/Fire_Up_Distractor.gif"",""img/Fire_Up_Distractor.gif"",""img/Fire_Up_Distractor.gif"",""img/Fire_Up_Distractor.gif"",""img/Fire_Up_Distractor.gif"",""img/Fire_Up_Distractor.gif"",""img/Fire_Up_Distractor.gif""]","6","targetDown_distractorsUp"
"","","","","","html-keyboard-response","146","257795","0.0-14.0-0.0-0.66","603990bc95a5a047b165f662","619531dcf66c91622fa1b861","619595d41a0f707283706585","null","","null","","","","","main_T1_ITI","","","","",""
"","","","","","visual-search-circle","147","259670","0.0-14.0-0.0-1.66","603990bc95a5a047b165f662","619531dcf66c91622fa1b861","619595d41a0f707283706585","859.0999999940395","","d","true","[[597,258],[480,60],[258,2],[60,119],[2,341],[119,539],[341,597],[539,480]]","true","8","main_T2_Trial","d","img/Fire_Down_Target.gif","[""img/Fire_Up_Distractor.gif"",""img/Fire_Up_Distractor.gif"",""img/Fire_Up_Distractor.gif"",""img/Fire_Up_Distractor.gif"",""img/Fire_Up_Distractor.gif"",""img/Fire_Up_Distractor.gif"",""img/Fire_Up_Distractor.gif"",""img/Fire_Up_Distractor.gif"",""img/Fire_Up_Distractor.gif"",""img/Fire_Up_Distractor.gif"",""img/Fire_Up_Distractor.gif"",""img/Fire_Up_Distractor.gif""]","8","targetDown_distractorsUp"
"","","","","","html-keyboard-response","148","259672","0.0-14.0-0.0-0.67","603990bc95a5a047b165f662","619531dcf66c91622fa1b861","619595d41a0f707283706585","null","","null","","","","","main_T1_ITI","","","","",""
"","","","","","visual-search-circle","149","261881","0.0-14.0-0.0-1.67","603990bc95a5a047b165f662","619531dcf66c91622fa1b861","619595d41a0f707283706585","1196.7999999970198","","s","true","[[87,87],[1,333],[140,554],[399,583],[583,399],[554,140],[333,1]]","false","7","main_T2_Trial","s","img/Fire_Up_Target.gif","[""img/Fire_Down_Distractor.gif"",""img/Fire_Down_Distractor.gif"",""img/Fire_Down_Distractor.gif"",""img/Fire_Down_Distractor.gif"",""img/Fire_Down_Distractor.gif"",""img/Fire_Down_Distractor.gif"",""img/Fire_Down_Distractor.gif"",""img/Fire_Down_Distractor.gif"",""img/Fire_Down_Distractor.gif"",""img/Fire_Down_Distractor.gif"",""img/Fire_Down_Distractor.gif"",""img/Fire_Down_Distractor.gif""]","7","targetUp_distractorsDown"
"","","","","","html-keyboard-response","150","261883","0.0-14.0-0.0-0.68","603990bc95a5a047b165f662","619531dcf66c91622fa1b861","619595d41a0f707283706585","null","","null","","","","","main_T1_ITI","","","","",""
"","","","","","visual-search-circle","151","264435","0.0-14.0-0.0-1.68","603990bc95a5a047b165f662","619531dcf66c91622fa1b861","619595d41a0f707283706585","1538.6000000089407","","s","true","[[431,30],[84,91],[35,440],[352,595],[597,341]]","false","5","main_T2_Trial","s","img/Fire_Up_Target.gif","[""img/Fire_Down_Distractor.gif"",""img/Fire_Down_Distractor.gif"",""img/Fire_Down_Distractor.gif"",""img/Fire_Down_Distractor.gif"",""img/Fire_Down_Distractor.gif"",""img/Fire_Down_Distractor.gif"",""img/Fire_Down_Distractor.gif"",""img/Fire_Down_Distractor.gif"",""img/Fire_Down_Distractor.gif"",""img/Fire_Down_Distractor.gif"",""img/Fire_Down_Distractor.gif"",""img/Fire_Down_Distractor.gif""]","5","targetUp_distractorsDown"
"","","","","","html-keyboard-response","152","264446","0.0-14.0-0.0-0.69","603990bc95a5a047b165f662","619531dcf66c91622fa1b861","619595d41a0f707283706585","null","","null","","","","","main_T1_ITI","","","","",""
"","","","","","visual-search-circle","153","266104","0.0-14.0-0.0-1.69","603990bc95a5a047b165f662","619531dcf66c91622fa1b861","619595d41a0f707283706585","637.8999999910593","","d","true","[[440,564],[564,159],[159,35],[35,440]]","true","4","main_T2_Trial","d","img/Fire_Up_Target.gif","[""img/Fire_Down_Distractor.gif"",""img/Fire_Down_Distractor.gif"",""img/Fire_Down_Distractor.gif"",""img/Fire_Down_Distractor.gif"",""img/Fire_Down_Distractor.gif"",""img/Fire_Down_Distractor.gif"",""img/Fire_Down_Distractor.gif"",""img/Fire_Down_Distractor.gif"",""img/Fire_Down_Distractor.gif"",""img/Fire_Down_Distractor.gif"",""img/Fire_Down_Distractor.gif"",""img/Fire_Down_Distractor.gif""]","4","targetUp_distractorsDown"
"","","","","","html-keyboard-response","154","266113","0.0-14.0-0.0-0.70","603990bc95a5a047b165f662","619531dcf66c91622fa1b861","619595d41a0f707283706585","null","","null","","","","","main_T1_ITI","","","","",""
"","","","","","visual-search-circle","155","268845","0.0-14.0-0.0-1.70","603990bc95a5a047b165f662","619531dcf66c91622fa1b861","619595d41a0f707283706585","1715.5999999940395","","d","true","[[284,0],[32,163],[48,463],[315,599],[567,436],[551,136]]","true","6","main_T2_Trial","d","img/Fire_Up_Target.gif","[""img/Fire_Down_Distractor.gif"",""img/Fire_Down_Distractor.gif"",""img/Fire_Down_Distractor.gif"",""img/Fire_Down_Distractor.gif"",""img/Fire_Down_Distractor.gif"",""img/Fire_Down_Distractor.gif"",""img/Fire_Down_Distractor.gif"",""img/Fire_Down_Distractor.gif"",""img/Fire_Down_Distractor.gif"",""img/Fire_Down_Distractor.gif"",""img/Fire_Down_Distractor.gif"",""img/Fire_Down_Distractor.gif""]","6","targetUp_distractorsDown"
"","","","","","html-keyboard-response","156","268847","0.0-14.0-0.0-0.71","603990bc95a5a047b165f662","619531dcf66c91622fa1b861","619595d41a0f707283706585","null","","null","","","","","main_T1_ITI","","","","",""
"","","","","","visual-search-circle","157","271384","0.0-14.0-0.0-1.71","603990bc95a5a047b165f662","619531dcf66c91622fa1b861","619595d41a0f707283706585","1525.2999999970198","","s","true","[[207,585],[436,567],[585,392],[567,163],[392,14],[163,32],[14,207],[32,436]]","false","8","main_T2_Trial","s","img/Fire_Up_Target.gif","[""img/Fire_Down_Distractor.gif"",""img/Fire_Down_Distractor.gif"",""img/Fire_Down_Distractor.gif"",""img/Fire_Down_Distractor.gif"",""img/Fire_Down_Distractor.gif"",""img/Fire_Down_Distractor.gif"",""img/Fire_Down_Distractor.gif"",""img/Fire_Down_Distractor.gif"",""img/Fire_Down_Distractor.gif"",""img/Fire_Down_Distractor.gif"",""img/Fire_Down_Distractor.gif"",""img/Fire_Down_Distractor.gif""]","8","targetUp_distractorsDown"
"","","","","","html-keyboard-response","158","271386","0.0-14.0-0.0-0.72","603990bc95a5a047b165f662","619531dcf66c91622fa1b861","619595d41a0f707283706585","null","","null","","","","","main_T1_ITI","","","","",""
"","","","","","visual-search-circle","159","274032","0.0-14.0-0.0-1.72","603990bc95a5a047b165f662","619531dcf66c91622fa1b861","619595d41a0f707283706585","1632.7999999970198","","d","true","[[222,10],[0,284],[192,580],[533,488],[551,136]]","true","5","main_T2_Trial","d","img/Fire_Down_Target.gif","[""img/Fire_Up_Distractor.gif"",""img/Fire_Up_Distractor.gif"",""img/Fire_Up_Distractor.gif"",""img/Fire_Up_Distractor.gif"",""img/Fire_Up_Distractor.gif"",""img/Fire_Up_Distractor.gif"",""img/Fire_Up_Distractor.gif"",""img/Fire_Up_Distractor.gif"",""img/Fire_Up_Distractor.gif"",""img/Fire_Up_Distractor.gif"",""img/Fire_Up_Distractor.gif"",""img/Fire_Up_Distractor.gif""]","5","targetDown_distractorsUp"
"","","","","","html-keyboard-response","160","274035","0.0-14.0-0.0-0.73","603990bc95a5a047b165f662","619531dcf66c91622fa1b861","619595d41a0f707283706585","null","","null","","","","","main_T1_ITI","","","","",""
"","","","","","visual-search-circle","161","276325","0.0-14.0-0.0-1.73","603990bc95a5a047b165f662","619531dcf66c91622fa1b861","619595d41a0f707283706585","1285","","d","false","[[1,273],[273,598],[598,326],[326,1]]","false","4","main_T2_Trial","s","img/Fire_Up_Target.gif","[""img/Fire_Down_Distractor.gif"",""img/Fire_Down_Distractor.gif"",""img/Fire_Down_Distractor.gif"",""img/Fire_Down_Distractor.gif"",""img/Fire_Down_Distractor.gif"",""img/Fire_Down_Distractor.gif"",""img/Fire_Down_Distractor.gif"",""img/Fire_Down_Distractor.gif"",""img/Fire_Down_Distractor.gif"",""img/Fire_Down_Distractor.gif"",""img/Fire_Down_Distractor.gif"",""img/Fire_Down_Distractor.gif""]","4","targetUp_distractorsDown"
"","","","","","html-keyboard-response","162","276327","0.0-14.0-0.0-0.74","603990bc95a5a047b165f662","619531dcf66c91622fa1b861","619595d41a0f707283706585","null","","null","","","","","main_T1_ITI","","","","",""
"","","","","","visual-search-circle","163","278456","0.0-14.0-0.0-1.74","603990bc95a5a047b165f662","619531dcf66c91622fa1b861","619595d41a0f707283706585","1112","","s","true","[[28,426],[229,591],[484,536],[599,303],[489,67],[236,6],[31,166]]","false","7","main_T2_Trial","s","img/Fire_Down_Target.gif","[""img/Fire_Up_Distractor.gif"",""img/Fire_Up_Distractor.gif"",""img/Fire_Up_Distractor.gif"",""img/Fire_Up_Distractor.gif"",""img/Fire_Up_Distractor.gif"",""img/Fire_Up_Distractor.gif"",""img/Fire_Up_Distractor.gif"",""img/Fire_Up_Distractor.gif"",""img/Fire_Up_Distractor.gif"",""img/Fire_Up_Distractor.gif"",""img/Fire_Up_Distractor.gif"",""img/Fire_Up_Distractor.gif""]","7","targetDown_distractorsUp"
"","","","","","html-keyboard-response","164","278458","0.0-14.0-0.0-0.75","603990bc95a5a047b165f662","619531dcf66c91622fa1b861","619595d41a0f707283706585","null","","null","","","","","main_T1_ITI","","","","",""
"","","","","","visual-search-circle","165","283054","0.0-14.0-0.0-1.75","603990bc95a5a047b165f662","619531dcf66c91622fa1b861","619595d41a0f707283706585","3581.4000000059605","","d","true","[[42,145],[145,557],[557,454],[454,42]]","true","4","main_T2_Trial","d","img/Fire_Down_Target.gif","[""img/Fire_Up_Distractor.gif"",""img/Fire_Up_Distractor.gif"",""img/Fire_Up_Distractor.gif"",""img/Fire_Up_Distractor.gif"",""img/Fire_Up_Distractor.gif"",""img/Fire_Up_Distractor.gif"",""img/Fire_Up_Distractor.gif"",""img/Fire_Up_Distractor.gif"",""img/Fire_Up_Distractor.gif"",""img/Fire_Up_Distractor.gif"",""img/Fire_Up_Distractor.gif"",""img/Fire_Up_Distractor.gif""]","4","targetDown_distractorsUp"
"","","","","","html-keyboard-response","166","283056","0.0-14.0-0.0-0.76","603990bc95a5a047b165f662","619531dcf66c91622fa1b861","619595d41a0f707283706585","null","","null","","","","","main_T1_ITI","","","","",""
"","","","","","visual-search-circle","167","285241","0.0-14.0-0.0-1.76","603990bc95a5a047b165f662","619531dcf66c91622fa1b861","619595d41a0f707283706585","1168.7999999970198","","s","true","[[567,436],[573,175],[373,9],[118,61],[0,293],[107,530],[360,593]]","false","7","main_T2_Trial","s","img/Fire_Up_Target.gif","[""img/Fire_Down_Distractor.gif"",""img/Fire_Down_Distractor.gif"",""img/Fire_Down_Distractor.gif"",""img/Fire_Down_Distractor.gif"",""img/Fire_Down_Distractor.gif"",""img/Fire_Down_Distractor.gif"",""img/Fire_Down_Distractor.gif"",""img/Fire_Down_Distractor.gif"",""img/Fire_Down_Distractor.gif"",""img/Fire_Down_Distractor.gif"",""img/Fire_Down_Distractor.gif"",""img/Fire_Down_Distractor.gif""]","7","targetUp_distractorsDown"
"","","","","","html-keyboard-response","168","285243","0.0-14.0-0.0-0.77","603990bc95a5a047b165f662","619531dcf66c91622fa1b861","619595d41a0f707283706585","null","","null","","","","","main_T1_ITI","","","","",""
"","","","","","visual-search-circle","169","286984","0.0-14.0-0.0-1.77","603990bc95a5a047b165f662","619531dcf66c91622fa1b861","619595d41a0f707283706585","727.0999999940395","","d","true","[[70,107],[5,359],[163,566],[423,573],[590,374],[539,118],[307,0]]","true","7","main_T2_Trial","d","img/Fire_Down_Target.gif","[""img/Fire_Up_Distractor.gif"",""img/Fire_Up_Distractor.gif"",""img/Fire_Up_Distractor.gif"",""img/Fire_Up_Distractor.gif"",""img/Fire_Up_Distractor.gif"",""img/Fire_Up_Distractor.gif"",""img/Fire_Up_Distractor.gif"",""img/Fire_Up_Distractor.gif"",""img/Fire_Up_Distractor.gif"",""img/Fire_Up_Distractor.gif"",""img/Fire_Up_Distractor.gif"",""img/Fire_Up_Distractor.gif""]","7","targetDown_distractorsUp"
"","","","","","html-keyboard-response","170","286985","0.0-14.0-0.0-0.78","603990bc95a5a047b165f662","619531dcf66c91622fa1b861","619595d41a0f707283706585","null","","null","","","","","main_T1_ITI","","","","",""
"","","","","","visual-search-circle","171","289385","0.0-14.0-0.0-1.78","603990bc95a5a047b165f662","619531dcf66c91622fa1b861","619595d41a0f707283706585","1393.6000000089407","","d","true","[[95,80],[28,426],[336,597],[594,357],[445,37]]","true","5","main_T2_Trial","d","img/Fire_Up_Target.gif","[""img/Fire_Down_Distractor.gif"",""img/Fire_Down_Distractor.gif"",""img/Fire_Down_Distractor.gif"",""img/Fire_Down_Distractor.gif"",""img/Fire_Down_Distractor.gif"",""img/Fire_Down_Distractor.gif"",""img/Fire_Down_Distractor.gif"",""img/Fire_Down_Distractor.gif"",""img/Fire_Down_Distractor.gif"",""img/Fire_Down_Distractor.gif"",""img/Fire_Down_Distractor.gif"",""img/Fire_Down_Distractor.gif""]","5","targetUp_distractorsDown"
"","","","","","html-keyboard-response","172","290456","0.0-14.0-0.0-0.79","603990bc95a5a047b165f662","619531dcf66c91622fa1b861","619595d41a0f707283706585","1070.2999999970198","Wow! You've completed 80 out of 160 trials! </p> <p>  </p><p> Take a quick break, then press any key when you're ready to continue."," ","","","","","main_T1_ITI","","","","",""
"","","","","","visual-search-circle","173","292862","0.0-14.0-0.0-1.79","603990bc95a5a047b165f662","619531dcf66c91622fa1b861","619595d41a0f707283706585","1381.7999999970198","","d","true","[[40,150],[20,409],[211,586],[468,547],[599,322],[504,80],[255,3]]","true","7","main_T2_Trial","d","img/Fire_Up_Target.gif","[""img/Fire_Down_Distractor.gif"",""img/Fire_Down_Distractor.gif"",""img/Fire_Down_Distractor.gif"",""img/Fire_Down_Distractor.gif"",""img/Fire_Down_Distractor.gif"",""img/Fire_Down_Distractor.gif"",""img/Fire_Down_Distractor.gif"",""img/Fire_Down_Distractor.gif"",""img/Fire_Down_Distractor.gif"",""img/Fire_Down_Distractor.gif"",""img/Fire_Down_Distractor.gif"",""img/Fire_Down_Distractor.gif""]","7","targetUp_distractorsDown"
"","","","","","html-keyboard-response","174","292865","0.0-14.0-0.0-0.80","603990bc95a5a047b165f662","619531dcf66c91622fa1b861","619595d41a0f707283706585","null","","null","","","","","main_T1_ITI","","","","",""
"","","","","","visual-search-circle","175","294813","0.0-14.0-0.0-1.80","603990bc95a5a047b165f662","619531dcf66c91622fa1b861","619595d41a0f707283706585","927.3999999910593","","s","true","[[320,599],[526,496],[599,279],[496,73],[279,0],[73,103],[0,320],[103,526]]","false","8","main_T2_Trial","s","img/Fire_Down_Target.gif","[""img/Fire_Up_Distractor.gif"",""img/Fire_Up_Distractor.gif"",""img/Fire_Up_Distractor.gif"",""img/Fire_Up_Distractor.gif"",""img/Fire_Up_Distractor.gif"",""img/Fire_Up_Distractor.gif"",""img/Fire_Up_Distractor.gif"",""img/Fire_Up_Distractor.gif"",""img/Fire_Up_Distractor.gif"",""img/Fire_Up_Distractor.gif"",""img/Fire_Up_Distractor.gif"",""img/Fire_Up_Distractor.gif""]","8","targetDown_distractorsUp"
"","","","","","html-keyboard-response","176","294815","0.0-14.0-0.0-0.81","603990bc95a5a047b165f662","619531dcf66c91622fa1b861","619595d41a0f707283706585","null","","null","","","","","main_T1_ITI","","","","",""
"","","","","","visual-search-circle","177","296742","0.0-14.0-0.0-1.81","603990bc95a5a047b165f662","619531dcf66c91622fa1b861","619595d41a0f707283706585","912.8999999910593","","d","true","[[529,107],[107,70],[70,492],[492,529]]","true","4","main_T2_Trial","d","img/Fire_Up_Target.gif","[""img/Fire_Down_Distractor.gif"",""img/Fire_Down_Distractor.gif"",""img/Fire_Down_Distractor.gif"",""img/Fire_Down_Distractor.gif"",""img/Fire_Down_Distractor.gif"",""img/Fire_Down_Distractor.gif"",""img/Fire_Down_Distractor.gif"",""img/Fire_Down_Distractor.gif"",""img/Fire_Down_Distractor.gif"",""img/Fire_Down_Distractor.gif"",""img/Fire_Down_Distractor.gif"",""img/Fire_Down_Distractor.gif""]","4","targetUp_distractorsDown"
"","","","","","html-keyboard-response","178","296743","0.0-14.0-0.0-0.82","603990bc95a5a047b165f662","619531dcf66c91622fa1b861","619595d41a0f707283706585","null","","null","","","","","main_T1_ITI","","","","",""
"","","","","","visual-search-circle","179","299369","0.0-14.0-0.0-1.82","603990bc95a5a047b165f662","619531dcf66c91622fa1b861","619595d41a0f707283706585","1607.7000000029802","","d","true","[[440,564],[599,310],[458,45],[159,35],[0,289],[141,554]]","true","6","main_T2_Trial","d","img/Fire_Up_Target.gif","[""img/Fire_Down_Distractor.gif"",""img/Fire_Down_Distractor.gif"",""img/Fire_Down_Distractor.gif"",""img/Fire_Down_Distractor.gif"",""img/Fire_Down_Distractor.gif"",""img/Fire_Down_Distractor.gif"",""img/Fire_Down_Distractor.gif"",""img/Fire_Down_Distractor.gif"",""img/Fire_Down_Distractor.gif"",""img/Fire_Down_Distractor.gif"",""img/Fire_Down_Distractor.gif"",""img/Fire_Down_Distractor.gif""]","6","targetUp_distractorsDown"
"","","","","","html-keyboard-response","180","299373","0.0-14.0-0.0-0.83","603990bc95a5a047b165f662","619531dcf66c91622fa1b861","619595d41a0f707283706585","null","","null","","","","","main_T1_ITI","","","","",""
"","","","","","visual-search-circle","181","303421","0.0-14.0-0.0-1.83","603990bc95a5a047b165f662","619531dcf66c91622fa1b861","619595d41a0f707283706585","3042.2000000029802","","s","false","[[173,571],[402,581],[571,426],[581,197],[426,28],[197,18],[28,173],[18,402]]","true","8","main_T2_Trial","d","img/Fire_Up_Target.gif","[""img/Fire_Down_Distractor.gif"",""img/Fire_Down_Distractor.gif"",""img/Fire_Down_Distractor.gif"",""img/Fire_Down_Distractor.gif"",""img/Fire_Down_Distractor.gif"",""img/Fire_Down_Distractor.gif"",""img/Fire_Down_Distractor.gif"",""img/Fire_Down_Distractor.gif"",""img/Fire_Down_Distractor.gif"",""img/Fire_Down_Distractor.gif"",""img/Fire_Down_Distractor.gif"",""img/Fire_Down_Distractor.gif""]","8","targetUp_distractorsDown"
"","","","","","html-keyboard-response","182","303423","0.0-14.0-0.0-0.84","603990bc95a5a047b165f662","619531dcf66c91622fa1b861","619595d41a0f707283706585","null","","null","","","","","main_T1_ITI","","","","",""
"","","","","","visual-search-circle","183","306025","0.0-14.0-0.0-1.84","603990bc95a5a047b165f662","619531dcf66c91622fa1b861","619595d41a0f707283706585","1585.2999999970198","","d","true","[[412,21],[21,187],[187,578],[578,412]]","true","4","main_T2_Trial","d","img/Fire_Down_Target.gif","[""img/Fire_Up_Distractor.gif"",""img/Fire_Up_Distractor.gif"",""img/Fire_Up_Distractor.gif"",""img/Fire_Up_Distractor.gif"",""img/Fire_Up_Distractor.gif"",""img/Fire_Up_Distractor.gif"",""img/Fire_Up_Distractor.gif"",""img/Fire_Up_Distractor.gif"",""img/Fire_Up_Distractor.gif"",""img/Fire_Up_Distractor.gif"",""img/Fire_Up_Distractor.gif"",""img/Fire_Up_Distractor.gif""]","4","targetDown_distractorsUp"
"","","","","","html-keyboard-response","184","306038","0.0-14.0-0.0-0.85","603990bc95a5a047b165f662","619531dcf66c91622fa1b861","619595d41a0f707283706585","null","","null","","","","","main_T1_ITI","","","","",""
"","","","","","visual-search-circle","185","309226","0.0-14.0-0.0-1.85","603990bc95a5a047b165f662","619531dcf66c91622fa1b861","619595d41a0f707283706585","2168.1000000089407","","d","true","[[247,595],[472,545],[595,352],[545,127],[352,4],[127,54],[4,247],[54,472]]","true","8","main_T2_Trial","d","img/Fire_Down_Target.gif","[""img/Fire_Up_Distractor.gif"",""img/Fire_Up_Distractor.gif"",""img/Fire_Up_Distractor.gif"",""img/Fire_Up_Distractor.gif"",""img/Fire_Up_Distractor.gif"",""img/Fire_Up_Distractor.gif"",""img/Fire_Up_Distractor.gif"",""img/Fire_Up_Distractor.gif"",""img/Fire_Up_Distractor.gif"",""img/Fire_Up_Distractor.gif"",""img/Fire_Up_Distractor.gif"",""img/Fire_Up_Distractor.gif""]","8","targetDown_distractorsUp"
"","","","","","html-keyboard-response","186","309229","0.0-14.0-0.0-0.86","603990bc95a5a047b165f662","619531dcf66c91622fa1b861","619595d41a0f707283706585","null","","null","","","","","main_T1_ITI","","","","",""
"","","","","","visual-search-circle","187","312530","0.0-14.0-0.0-1.86","603990bc95a5a047b165f662","619531dcf66c91622fa1b861","619595d41a0f707283706585","2281.7999999970198","","d","true","[[40,150],[149,559],[559,450],[449,40]]","true","4","main_T2_Trial","d","img/Fire_Down_Target.gif","[""img/Fire_Up_Distractor.gif"",""img/Fire_Up_Distractor.gif"",""img/Fire_Up_Distractor.gif"",""img/Fire_Up_Distractor.gif"",""img/Fire_Up_Distractor.gif"",""img/Fire_Up_Distractor.gif"",""img/Fire_Up_Distractor.gif"",""img/Fire_Up_Distractor.gif"",""img/Fire_Up_Distractor.gif"",""img/Fire_Up_Distractor.gif"",""img/Fire_Up_Distractor.gif"",""img/Fire_Up_Distractor.gif""]","4","targetDown_distractorsUp"
"","","","","","html-keyboard-response","188","312533","0.0-14.0-0.0-0.87","603990bc95a5a047b165f662","619531dcf66c91622fa1b861","619595d41a0f707283706585","null","","null","","","","","main_T1_ITI","","","","",""
"","","","","","visual-search-circle","189","314503","0.0-14.0-0.0-1.87","603990bc95a5a047b165f662","619531dcf66c91622fa1b861","619595d41a0f707283706585","952.2000000029802","","s","true","[[207,585],[585,392],[392,14],[14,207]]","false","4","main_T2_Trial","s","img/Fire_Down_Target.gif","[""img/Fire_Up_Distractor.gif"",""img/Fire_Up_Distractor.gif"",""img/Fire_Up_Distractor.gif"",""img/Fire_Up_Distractor.gif"",""img/Fire_Up_Distractor.gif"",""img/Fire_Up_Distractor.gif"",""img/Fire_Up_Distractor.gif"",""img/Fire_Up_Distractor.gif"",""img/Fire_Up_Distractor.gif"",""img/Fire_Up_Distractor.gif"",""img/Fire_Up_Distractor.gif"",""img/Fire_Up_Distractor.gif""]","4","targetDown_distractorsUp"
"","","","","","html-keyboard-response","190","314504","0.0-14.0-0.0-0.88","603990bc95a5a047b165f662","619531dcf66c91622fa1b861","619595d41a0f707283706585","null","","null","","","","","main_T1_ITI","","","","",""
"","","","","","visual-search-circle","191","316514","0.0-14.0-0.0-1.88","603990bc95a5a047b165f662","619531dcf66c91622fa1b861","619595d41a0f707283706585","996","","d","true","[[35,159],[24,419],[221,589],[477,541],[599,311],[496,73],[244,5]]","true","7","main_T2_Trial","d","img/Fire_Up_Target.gif","[""img/Fire_Down_Distractor.gif"",""img/Fire_Down_Distractor.gif"",""img/Fire_Down_Distractor.gif"",""img/Fire_Down_Distractor.gif"",""img/Fire_Down_Distractor.gif"",""img/Fire_Down_Distractor.gif"",""img/Fire_Down_Distractor.gif"",""img/Fire_Down_Distractor.gif"",""img/Fire_Down_Distractor.gif"",""img/Fire_Down_Distractor.gif"",""img/Fire_Down_Distractor.gif"",""img/Fire_Down_Distractor.gif""]","7","targetUp_distractorsDown"
"","","","","","html-keyboard-response","192","316516","0.0-14.0-0.0-0.89","603990bc95a5a047b165f662","619531dcf66c91622fa1b861","619595d41a0f707283706585","null","","null","","","","","main_T1_ITI","","","","",""
"","","","","","visual-search-circle","193","318624","0.0-14.0-0.0-1.89","603990bc95a5a047b165f662","619531dcf66c91622fa1b861","619595d41a0f707283706585","1093.7000000029802","","d","true","[[127,54],[54,472],[472,545],[545,127]]","true","4","main_T2_Trial","d","img/Fire_Up_Target.gif","[""img/Fire_Down_Distractor.gif"",""img/Fire_Down_Distractor.gif"",""img/Fire_Down_Distractor.gif"",""img/Fire_Down_Distractor.gif"",""img/Fire_Down_Distractor.gif"",""img/Fire_Down_Distractor.gif"",""img/Fire_Down_Distractor.gif"",""img/Fire_Down_Distractor.gif"",""img/Fire_Down_Distractor.gif"",""img/Fire_Down_Distractor.gif"",""img/Fire_Down_Distractor.gif"",""img/Fire_Down_Distractor.gif""]","4","targetUp_distractorsDown"
"","","","","","html-keyboard-response","194","318626","0.0-14.0-0.0-0.90","603990bc95a5a047b165f662","619531dcf66c91622fa1b861","619595d41a0f707283706585","null","","null","","","","","main_T1_ITI","","","","",""
"","","","","","visual-search-circle","195","320960","0.0-14.0-0.0-1.90","603990bc95a5a047b165f662","619531dcf66c91622fa1b861","619595d41a0f707283706585","1325.0999999940395","","d","true","[[519,95],[95,80],[80,504],[504,519]]","true","4","main_T2_Trial","d","img/Fire_Down_Target.gif","[""img/Fire_Up_Distractor.gif"",""img/Fire_Up_Distractor.gif"",""img/Fire_Up_Distractor.gif"",""img/Fire_Up_Distractor.gif"",""img/Fire_Up_Distractor.gif"",""img/Fire_Up_Distractor.gif"",""img/Fire_Up_Distractor.gif"",""img/Fire_Up_Distractor.gif"",""img/Fire_Up_Distractor.gif"",""img/Fire_Up_Distractor.gif"",""img/Fire_Up_Distractor.gif"",""img/Fire_Up_Distractor.gif""]","4","targetDown_distractorsUp"
"","","","","","html-keyboard-response","196","320963","0.0-14.0-0.0-0.91","603990bc95a5a047b165f662","619531dcf66c91622fa1b861","619595d41a0f707283706585","null","","null","","","","","main_T1_ITI","","","","",""
"","","","","","visual-search-circle","197","322810","0.0-14.0-0.0-1.91","603990bc95a5a047b165f662","619531dcf66c91622fa1b861","619595d41a0f707283706585","834.8000000119209","","s","true","[[326,598],[571,426],[545,127],[273,1],[28,173],[54,472]]","false","6","main_T2_Trial","s","img/Fire_Down_Target.gif","[""img/Fire_Up_Distractor.gif"",""img/Fire_Up_Distractor.gif"",""img/Fire_Up_Distractor.gif"",""img/Fire_Up_Distractor.gif"",""img/Fire_Up_Distractor.gif"",""img/Fire_Up_Distractor.gif"",""img/Fire_Up_Distractor.gif"",""img/Fire_Up_Distractor.gif"",""img/Fire_Up_Distractor.gif"",""img/Fire_Up_Distractor.gif"",""img/Fire_Up_Distractor.gif"",""img/Fire_Up_Distractor.gif""]","6","targetDown_distractorsUp"
"","","","","","html-keyboard-response","198","322812","0.0-14.0-0.0-0.92","603990bc95a5a047b165f662","619531dcf66c91622fa1b861","619595d41a0f707283706585","null","","null","","","","","main_T1_ITI","","","","",""
"","","","","","visual-search-circle","199","324789","0.0-14.0-0.0-1.92","603990bc95a5a047b165f662","619531dcf66c91622fa1b861","619595d41a0f707283706585","961.9000000059605","","d","true","[[422,25],[192,19],[25,177],[19,407],[177,574],[407,580],[574,422],[580,192]]","true","8","main_T2_Trial","d","img/Fire_Down_Target.gif","[""img/Fire_Up_Distractor.gif"",""img/Fire_Up_Distractor.gif"",""img/Fire_Up_Distractor.gif"",""img/Fire_Up_Distractor.gif"",""img/Fire_Up_Distractor.gif"",""img/Fire_Up_Distractor.gif"",""img/Fire_Up_Distractor.gif"",""img/Fire_Up_Distractor.gif"",""img/Fire_Up_Distractor.gif"",""img/Fire_Up_Distractor.gif"",""img/Fire_Up_Distractor.gif"",""img/Fire_Up_Distractor.gif""]","8","targetDown_distractorsUp"
"","","","","","html-keyboard-response","200","324790","0.0-14.0-0.0-0.93","603990bc95a5a047b165f662","619531dcf66c91622fa1b861","619595d41a0f707283706585","null","","null","","","","","main_T1_ITI","","","","",""
"","","","","","visual-search-circle","201","327316","0.0-14.0-0.0-1.93","603990bc95a5a047b165f662","619531dcf66c91622fa1b861","619595d41a0f707283706585","1512.0999999940395","","s","true","[[127,545],[384,587],[577,413],[561,153],[348,3],[98,77],[0,318]]","false","7","main_T2_Trial","s","img/Fire_Up_Target.gif","[""img/Fire_Down_Distractor.gif"",""img/Fire_Down_Distractor.gif"",""img/Fire_Down_Distractor.gif"",""img/Fire_Down_Distractor.gif"",""img/Fire_Down_Distractor.gif"",""img/Fire_Down_Distractor.gif"",""img/Fire_Down_Distractor.gif"",""img/Fire_Down_Distractor.gif"",""img/Fire_Down_Distractor.gif"",""img/Fire_Down_Distractor.gif"",""img/Fire_Down_Distractor.gif"",""img/Fire_Down_Distractor.gif""]","7","targetUp_distractorsDown"
"","","","","","html-keyboard-response","202","327318","0.0-14.0-0.0-0.94","603990bc95a5a047b165f662","619531dcf66c91622fa1b861","619595d41a0f707283706585","null","","null","","","","","main_T1_ITI","","","","",""
"","","","","","visual-search-circle","203","329268","0.0-14.0-0.0-1.94","603990bc95a5a047b165f662","619531dcf66c91622fa1b861","619595d41a0f707283706585","932.7000000029802","","d","true","[[60,119],[54,472],[387,586],[599,305],[397,16]]","true","5","main_T2_Trial","d","img/Fire_Down_Target.gif","[""img/Fire_Up_Distractor.gif"",""img/Fire_Up_Distractor.gif"",""img/Fire_Up_Distractor.gif"",""img/Fire_Up_Distractor.gif"",""img/Fire_Up_Distractor.gif"",""img/Fire_Up_Distractor.gif"",""img/Fire_Up_Distractor.gif"",""img/Fire_Up_Distractor.gif"",""img/Fire_Up_Distractor.gif"",""img/Fire_Up_Distractor.gif"",""img/Fire_Up_Distractor.gif"",""img/Fire_Up_Distractor.gif""]","5","targetDown_distractorsUp"
"","","","","","html-keyboard-response","204","329270","0.0-14.0-0.0-0.95","603990bc95a5a047b165f662","619531dcf66c91622fa1b861","619595d41a0f707283706585","null","","null","","","","","main_T1_ITI","","","","",""
"","","","","","visual-search-circle","205","331629","0.0-14.0-0.0-1.95","603990bc95a5a047b165f662","619531dcf66c91622fa1b861","619595d41a0f707283706585","1340.0999999940395","","s","true","[[28,173],[54,472],[326,598],[571,426],[545,127],[273,1]]","false","6","main_T2_Trial","s","img/Fire_Down_Target.gif","[""img/Fire_Up_Distractor.gif"",""img/Fire_Up_Distractor.gif"",""img/Fire_Up_Distractor.gif"",""img/Fire_Up_Distractor.gif"",""img/Fire_Up_Distractor.gif"",""img/Fire_Up_Distractor.gif"",""img/Fire_Up_Distractor.gif"",""img/Fire_Up_Distractor.gif"",""img/Fire_Up_Distractor.gif"",""img/Fire_Up_Distractor.gif"",""img/Fire_Up_Distractor.gif"",""img/Fire_Up_Distractor.gif""]","6","targetDown_distractorsUp"
"","","","","","html-keyboard-response","206","331631","0.0-14.0-0.0-0.96","603990bc95a5a047b165f662","619531dcf66c91622fa1b861","619595d41a0f707283706585","null","","null","","","","","main_T1_ITI","","","","",""
"","","","","","visual-search-circle","207","333450","0.0-14.0-0.0-1.96","603990bc95a5a047b165f662","619531dcf66c91622fa1b861","619595d41a0f707283706585","802.2999999970198","","s","true","[[592,367],[504,80],[212,13],[7,232],[95,519],[387,586]]","false","6","main_T2_Trial","s","img/Fire_Down_Target.gif","[""img/Fire_Up_Distractor.gif"",""img/Fire_Up_Distractor.gif"",""img/Fire_Up_Distractor.gif"",""img/Fire_Up_Distractor.gif"",""img/Fire_Up_Distractor.gif"",""img/Fire_Up_Distractor.gif"",""img/Fire_Up_Distractor.gif"",""img/Fire_Up_Distractor.gif"",""img/Fire_Up_Distractor.gif"",""img/Fire_Up_Distractor.gif"",""img/Fire_Up_Distractor.gif"",""img/Fire_Up_Distractor.gif""]","6","targetDown_distractorsUp"
"","","","","","html-keyboard-response","208","333452","0.0-14.0-0.0-0.97","603990bc95a5a047b165f662","619531dcf66c91622fa1b861","619595d41a0f707283706585","null","","null","","","","","main_T1_ITI","","","","",""
"","","","","","visual-search-circle","209","335212","0.0-14.0-0.0-1.97","603990bc95a5a047b165f662","619531dcf66c91622fa1b861","619595d41a0f707283706585","745.5999999940395","","s","true","[[500,77],[284,0],[77,99],[0,315],[99,522],[315,599],[522,500],[599,284]]","false","8","main_T2_Trial","s","img/Fire_Down_Target.gif","[""img/Fire_Up_Distractor.gif"",""img/Fire_Up_Distractor.gif"",""img/Fire_Up_Distractor.gif"",""img/Fire_Up_Distractor.gif"",""img/Fire_Up_Distractor.gif"",""img/Fire_Up_Distractor.gif"",""img/Fire_Up_Distractor.gif"",""img/Fire_Up_Distractor.gif"",""img/Fire_Up_Distractor.gif"",""img/Fire_Up_Distractor.gif"",""img/Fire_Up_Distractor.gif"",""img/Fire_Up_Distractor.gif""]","8","targetDown_distractorsUp"
"","","","","","html-keyboard-response","210","335214","0.0-14.0-0.0-0.98","603990bc95a5a047b165f662","619531dcf66c91622fa1b861","619595d41a0f707283706585","null","","null","","","","","main_T1_ITI","","","","",""
"","","","","","visual-search-circle","211","337030","0.0-14.0-0.0-1.98","603990bc95a5a047b165f662","619531dcf66c91622fa1b861","619595d41a0f707283706585","799","","d","true","[[315,599],[599,284],[284,0],[0,315]]","true","4","main_T2_Trial","d","img/Fire_Down_Target.gif","[""img/Fire_Up_Distractor.gif"",""img/Fire_Up_Distractor.gif"",""img/Fire_Up_Distractor.gif"",""img/Fire_Up_Distractor.gif"",""img/Fire_Up_Distractor.gif"",""img/Fire_Up_Distractor.gif"",""img/Fire_Up_Distractor.gif"",""img/Fire_Up_Distractor.gif"",""img/Fire_Up_Distractor.gif"",""img/Fire_Up_Distractor.gif"",""img/Fire_Up_Distractor.gif"",""img/Fire_Up_Distractor.gif""]","4","targetDown_distractorsUp"
"","","","","","html-keyboard-response","212","338082","0.0-14.0-0.0-0.99","603990bc95a5a047b165f662","619531dcf66c91622fa1b861","619595d41a0f707283706585","1051.7999999970198","Wow! You've completed 100 out of 160 trials! </p> <p>  </p><p> Take a quick break, then press any key when you're ready to continue."," ","","","","","main_T1_ITI","","","","",""
"","","","","","visual-search-circle","213","340627","0.0-14.0-0.0-1.99","603990bc95a5a047b165f662","619531dcf66c91622fa1b861","619595d41a0f707283706585","1531","","d","true","[[362,6],[77,99],[14,392],[237,593],[522,500],[585,207]]","true","6","main_T2_Trial","d","img/Fire_Down_Target.gif","[""img/Fire_Up_Distractor.gif"",""img/Fire_Up_Distractor.gif"",""img/Fire_Up_Distractor.gif"",""img/Fire_Up_Distractor.gif"",""img/Fire_Up_Distractor.gif"",""img/Fire_Up_Distractor.gif"",""img/Fire_Up_Distractor.gif"",""img/Fire_Up_Distractor.gif"",""img/Fire_Up_Distractor.gif"",""img/Fire_Up_Distractor.gif"",""img/Fire_Up_Distractor.gif"",""img/Fire_Up_Distractor.gif""]","6","targetDown_distractorsUp"
"","","","","","html-keyboard-response","214","340629","0.0-14.0-0.0-0.100","603990bc95a5a047b165f662","619531dcf66c91622fa1b861","619595d41a0f707283706585","null","","null","","","","","main_T1_ITI","","","","",""
"","","","","","visual-search-circle","215","342642","0.0-14.0-0.0-1.100","603990bc95a5a047b165f662","619531dcf66c91622fa1b861","619595d41a0f707283706585","1001.0999999940395","","d","true","[[132,51],[11,382],[289,599],[581,402],[484,63]]","true","5","main_T2_Trial","d","img/Fire_Up_Target.gif","[""img/Fire_Down_Distractor.gif"",""img/Fire_Down_Distractor.gif"",""img/Fire_Down_Distractor.gif"",""img/Fire_Down_Distractor.gif"",""img/Fire_Down_Distractor.gif"",""img/Fire_Down_Distractor.gif"",""img/Fire_Down_Distractor.gif"",""img/Fire_Down_Distractor.gif"",""img/Fire_Down_Distractor.gif"",""img/Fire_Down_Distractor.gif"",""img/Fire_Down_Distractor.gif"",""img/Fire_Down_Distractor.gif""]","5","targetUp_distractorsDown"
"","","","","","html-keyboard-response","216","342645","0.0-14.0-0.0-0.101","603990bc95a5a047b165f662","619531dcf66c91622fa1b861","619595d41a0f707283706585","null","","null","","","","","main_T1_ITI","","","","",""
