"success","timeout","failed_images","failed_audio","failed_video","trial_type","trial_index","time_elapsed","internal_node_id","subject_id","study_id","session_id","rt","stimulus","response","correct","locations","target_present","set_size","task","correct_response","target","foilCM","setSizeCM","searchCondition"
"true","false","[]","[]","[]","preload","0","37962","0.0-0.0","60521e44653a99113e8d7927","619531dcf66c91622fa1b861","619595d88483eed60ad86646","","","","","","","","","","","","",""
"true","","","","","fullscreen","1","316541","0.0-1.0","60521e44653a99113e8d7927","619531dcf66c91622fa1b861","619595d88483eed60ad86646","","","","","","","","","","","","",""
"","","","","","html-keyboard-response","2","326771","0.0-2.0","60521e44653a99113e8d7927","619531dcf66c91622fa1b861","619595d88483eed60ad86646","10229.399999976158","What a beautiful Wednesday to do some awesome science! </p> <p>  </p><p> </p>
    By completing this survey or questionnaire, you are consenting to be in this research study. </p>
    Your participation is voluntary and you can stop at any time.
    <p> [Press any key to continue.] </p>
    
    ","l","","","","","","","","","",""
"","","","","","video-keyboard-response","3","351573","0.0-3.0","60521e44653a99113e8d7927","619531dcf66c91622fa1b861","619595d88483eed60ad86646","24798.900000035763","[""video/TaskInstructions.mp4""]","k","","","","","","","","","",""
"","","","","","html-keyboard-response","4","358999","0.0-4.0","60521e44653a99113e8d7927","619531dcf66c91622fa1b861","619595d88483eed60ad86646","7426.299999952316","
    <p>First, we're going to do a few practice trials to make sure you understand the task. You will recieve feedback on each trial. </p>
    <p>[Press any key to begin the familiarization phase.]</p>
    ","d","","","","","","","","","",""
"","","","","","visual-search-circle","5","362223","0.0-5.0-0.0","60521e44653a99113e8d7927","619531dcf66c91622fa1b861","619595d88483eed60ad86646","2157.400000035763","","d","true","[[526,103],[103,73],[73,496],[496,526]]","true","4","training","d","","","",""
"","","","","","html-keyboard-response","6","364688","0.0-6.0","60521e44653a99113e8d7927","619531dcf66c91622fa1b861","619595d88483eed60ad86646","2464.399999976158"," <div style='float: center; '><img src='img/feedbackRight.png'></img> </div> ","d","","","","","","","","","",""
"","","","","","visual-search-circle","7","366847","0.0-7.0-0.0","60521e44653a99113e8d7927","619531dcf66c91622fa1b861","619595d88483eed60ad86646","1142","","s","true","[[0,299],[299,600],[600,300],[300,0]]","false","4","training","s","","","",""
"","","","","","html-keyboard-response","8","367360","0.0-8.0","60521e44653a99113e8d7927","619531dcf66c91622fa1b861","619595d88483eed60ad86646","512.5"," <div style='float: center; '><img src='img/feedbackRight.png'></img> </div> ","d","","","","","","","","","",""
"","","","","","visual-search-circle","9","369511","0.0-9.0-0.0","60521e44653a99113e8d7927","619531dcf66c91622fa1b861","619595d88483eed60ad86646","1134.3999999761581","","s","true","[[574,177],[331,1],[57,123],[25,422],[268,598],[542,476]]","false","6","training","s","","","",""
"","","","","","html-keyboard-response","10","370834","0.0-10.0","60521e44653a99113e8d7927","619531dcf66c91622fa1b861","619595d88483eed60ad86646","1323"," <div style='float: center; '><img src='img/feedbackRight.png'></img> </div> ","s","","","","","","","","","",""
"","","","","","visual-search-circle","11","372819","0.0-11.0-0.0","60521e44653a99113e8d7927","619531dcf66c91622fa1b861","619595d88483eed60ad86646","970.9000000357628","","d","true","[[28,426],[197,581],[426,571],[581,402],[571,173],[402,18],[173,28],[18,197]]","true","8","training","d","","","",""
"","","","","","html-keyboard-response","12","373204","0.0-12.0","60521e44653a99113e8d7927","619531dcf66c91622fa1b861","619595d88483eed60ad86646","384.69999998807907"," <div style='float: center; '><img src='img/feedbackRight.png'></img> </div> ","d","","","","","","","","","",""
"","","","","","video-keyboard-response","13","379546","0.0-13.0","60521e44653a99113e8d7927","619531dcf66c91622fa1b861","619595d88483eed60ad86646","6340.5","[""video/endTraining.mp4""]","s","","","","","","","","","",""
"","","","","","html-keyboard-response","14","379547","0.0-14.0-0.0-0.0","60521e44653a99113e8d7927","619531dcf66c91622fa1b861","619595d88483eed60ad86646","null","","null","","","","","main_T1_ITI","","","","",""
"","","","","","visual-search-circle","15","381366","0.0-14.0-0.0-1.0","60521e44653a99113e8d7927","619531dcf66c91622fa1b861","619595d88483eed60ad86646","816.1999999880791","","d","true","[[542,476],[574,177],[331,1],[57,123],[25,422],[268,598]]","true","6","main_T2_Trial","d","img/Fire_Down_Target.gif","[""img/Fire_Up_Distractor.gif"",""img/Fire_Up_Distractor.gif"",""img/Fire_Up_Distractor.gif"",""img/Fire_Up_Distractor.gif"",""img/Fire_Up_Distractor.gif"",""img/Fire_Up_Distractor.gif"",""img/Fire_Up_Distractor.gif"",""img/Fire_Up_Distractor.gif"",""img/Fire_Up_Distractor.gif"",""img/Fire_Up_Distractor.gif"",""img/Fire_Up_Distractor.gif"",""img/Fire_Up_Distractor.gif""]","6","targetDown_distractorsUp"
"","","","","","html-keyboard-response","16","381369","0.0-14.0-0.0-0.1","60521e44653a99113e8d7927","619531dcf66c91622fa1b861","619595d88483eed60ad86646","null","","null","","","","","main_T1_ITI","","","","",""
"","","","","","visual-search-circle","17","383665","0.0-14.0-0.0-1.1","60521e44653a99113e8d7927","619531dcf66c91622fa1b861","619595d88483eed60ad86646","1288.5999999642372","","s","false","[[436,32],[32,163],[163,567],[567,436]]","true","4","main_T2_Trial","d","img/Fire_Up_Target.gif","[""img/Fire_Down_Distractor.gif"",""img/Fire_Down_Distractor.gif"",""img/Fire_Down_Distractor.gif"",""img/Fire_Down_Distractor.gif"",""img/Fire_Down_Distractor.gif"",""img/Fire_Down_Distractor.gif"",""img/Fire_Down_Distractor.gif"",""img/Fire_Down_Distractor.gif"",""img/Fire_Down_Distractor.gif"",""img/Fire_Down_Distractor.gif"",""img/Fire_Down_Distractor.gif"",""img/Fire_Down_Distractor.gif""]","4","targetUp_distractorsDown"
"","","","","","html-keyboard-response","18","383667","0.0-14.0-0.0-0.2","60521e44653a99113e8d7927","619531dcf66c91622fa1b861","619595d88483eed60ad86646","null","","null","","","","","main_T1_ITI","","","","",""
"","","","","","visual-search-circle","19","385538","0.0-14.0-0.0-1.2","60521e44653a99113e8d7927","619531dcf66c91622fa1b861","619595d88483eed60ad86646","860.8000000119209","","d","true","[[599,315],[463,48],[163,32],[0,284],[136,551],[436,567]]","true","6","main_T2_Trial","d","img/Fire_Down_Target.gif","[""img/Fire_Up_Distractor.gif"",""img/Fire_Up_Distractor.gif"",""img/Fire_Up_Distractor.gif"",""img/Fire_Up_Distractor.gif"",""img/Fire_Up_Distractor.gif"",""img/Fire_Up_Distractor.gif"",""img/Fire_Up_Distractor.gif"",""img/Fire_Up_Distractor.gif"",""img/Fire_Up_Distractor.gif"",""img/Fire_Up_Distractor.gif"",""img/Fire_Up_Distractor.gif"",""img/Fire_Up_Distractor.gif""]","6","targetDown_distractorsUp"
"","","","","","html-keyboard-response","20","385877","0.0-14.0-0.0-0.3","60521e44653a99113e8d7927","619531dcf66c91622fa1b861","619595d88483eed60ad86646","null","","null","","","","","main_T1_ITI","","","","",""
"","","","","","visual-search-circle","21","387837","0.0-14.0-0.0-1.3","60521e44653a99113e8d7927","619531dcf66c91622fa1b861","619595d88483eed60ad86646","953.8999999761581","","d","true","[[8,372],[175,572],[435,567],[593,360],[530,108],[294,0],[61,117]]","true","7","main_T2_Trial","d","img/Fire_Up_Target.gif","[""img/Fire_Down_Distractor.gif"",""img/Fire_Down_Distractor.gif"",""img/Fire_Down_Distractor.gif"",""img/Fire_Down_Distractor.gif"",""img/Fire_Down_Distractor.gif"",""img/Fire_Down_Distractor.gif"",""img/Fire_Down_Distractor.gif"",""img/Fire_Down_Distractor.gif"",""img/Fire_Down_Distractor.gif"",""img/Fire_Down_Distractor.gif"",""img/Fire_Down_Distractor.gif"",""img/Fire_Down_Distractor.gif""]","7","targetUp_distractorsDown"
"","","","","","html-keyboard-response","22","387842","0.0-14.0-0.0-0.4","60521e44653a99113e8d7927","619531dcf66c91622fa1b861","619595d88483eed60ad86646","null","","null","","","","","main_T1_ITI","","","","",""
"","","","","","visual-search-circle","23","389464","0.0-14.0-0.0-1.4","60521e44653a99113e8d7927","619531dcf66c91622fa1b861","619595d88483eed60ad86646","616.3000000119209","","s","false","[[0,289],[197,581],[536,484],[548,132],[217,11]]","true","5","main_T2_Trial","d","img/Fire_Up_Target.gif","[""img/Fire_Down_Distractor.gif"",""img/Fire_Down_Distractor.gif"",""img/Fire_Down_Distractor.gif"",""img/Fire_Down_Distractor.gif"",""img/Fire_Down_Distractor.gif"",""img/Fire_Down_Distractor.gif"",""img/Fire_Down_Distractor.gif"",""img/Fire_Down_Distractor.gif"",""img/Fire_Down_Distractor.gif"",""img/Fire_Down_Distractor.gif"",""img/Fire_Down_Distractor.gif"",""img/Fire_Down_Distractor.gif""]","5","targetUp_distractorsDown"
"","","","","","html-keyboard-response","24","389466","0.0-14.0-0.0-0.5","60521e44653a99113e8d7927","619531dcf66c91622fa1b861","619595d88483eed60ad86646","null","","null","","","","","main_T1_ITI","","","","",""
"","","","","","visual-search-circle","25","391394","0.0-14.0-0.0-1.5","60521e44653a99113e8d7927","619531dcf66c91622fa1b861","619595d88483eed60ad86646","921.6999999880791","","s","true","[[222,10],[0,284],[192,580],[533,488],[551,136]]","false","5","main_T2_Trial","s","img/Fire_Up_Target.gif","[""img/Fire_Down_Distractor.gif"",""img/Fire_Down_Distractor.gif"",""img/Fire_Down_Distractor.gif"",""img/Fire_Down_Distractor.gif"",""img/Fire_Down_Distractor.gif"",""img/Fire_Down_Distractor.gif"",""img/Fire_Down_Distractor.gif"",""img/Fire_Down_Distractor.gif"",""img/Fire_Down_Distractor.gif"",""img/Fire_Down_Distractor.gif"",""img/Fire_Down_Distractor.gif"",""img/Fire_Down_Distractor.gif""]","5","targetUp_distractorsDown"
"","","","","","html-keyboard-response","26","391396","0.0-14.0-0.0-0.6","60521e44653a99113e8d7927","619531dcf66c91622fa1b861","619595d88483eed60ad86646","null","","null","","","","","main_T1_ITI","","","","",""
"","","","","","visual-search-circle","27","393254","0.0-14.0-0.0-1.6","60521e44653a99113e8d7927","619531dcf66c91622fa1b861","619595d88483eed60ad86646","843.3000000119209","","d","true","[[168,569],[397,583],[569,431],[583,202],[431,30],[202,16],[30,168],[16,397]]","true","8","main_T2_Trial","d","img/Fire_Down_Target.gif","[""img/Fire_Up_Distractor.gif"",""img/Fire_Up_Distractor.gif"",""img/Fire_Up_Distractor.gif"",""img/Fire_Up_Distractor.gif"",""img/Fire_Up_Distractor.gif"",""img/Fire_Up_Distractor.gif"",""img/Fire_Up_Distractor.gif"",""img/Fire_Up_Distractor.gif"",""img/Fire_Up_Distractor.gif"",""img/Fire_Up_Distractor.gif"",""img/Fire_Up_Distractor.gif"",""img/Fire_Up_Distractor.gif""]","8","targetDown_distractorsUp"
"","","","","","html-keyboard-response","28","393263","0.0-14.0-0.0-0.7","60521e44653a99113e8d7927","619531dcf66c91622fa1b861","619595d88483eed60ad86646","null","","null","","","","","main_T1_ITI","","","","",""
"","","","","","visual-search-circle","29","394951","0.0-14.0-0.0-1.7","60521e44653a99113e8d7927","619531dcf66c91622fa1b861","619595d88483eed60ad86646","681.3999999761581","","s","true","[[336,2],[28,173],[95,519],[445,562],[594,242]]","false","5","main_T2_Trial","s","img/Fire_Down_Target.gif","[""img/Fire_Up_Distractor.gif"",""img/Fire_Up_Distractor.gif"",""img/Fire_Up_Distractor.gif"",""img/Fire_Up_Distractor.gif"",""img/Fire_Up_Distractor.gif"",""img/Fire_Up_Distractor.gif"",""img/Fire_Up_Distractor.gif"",""img/Fire_Up_Distractor.gif"",""img/Fire_Up_Distractor.gif"",""img/Fire_Up_Distractor.gif"",""img/Fire_Up_Distractor.gif"",""img/Fire_Up_Distractor.gif""]","5","targetDown_distractorsUp"
"","","","","","html-keyboard-response","30","394964","0.0-14.0-0.0-0.8","60521e44653a99113e8d7927","619531dcf66c91622fa1b861","619595d88483eed60ad86646","null","","null","","","","","main_T1_ITI","","","","",""
"","","","","","visual-search-circle","31","397063","0.0-14.0-0.0-1.8","60521e44653a99113e8d7927","619531dcf66c91622fa1b861","619595d88483eed60ad86646","1089.300000011921","","s","false","[[377,589],[559,450],[589,222],[449,40],[222,10],[40,150],[10,377],[150,559]]","true","8","main_T2_Trial","d","img/Fire_Up_Target.gif","[""img/Fire_Down_Distractor.gif"",""img/Fire_Down_Distractor.gif"",""img/Fire_Down_Distractor.gif"",""img/Fire_Down_Distractor.gif"",""img/Fire_Down_Distractor.gif"",""img/Fire_Down_Distractor.gif"",""img/Fire_Down_Distractor.gif"",""img/Fire_Down_Distractor.gif"",""img/Fire_Down_Distractor.gif"",""img/Fire_Down_Distractor.gif"",""img/Fire_Down_Distractor.gif"",""img/Fire_Down_Distractor.gif""]","8","targetUp_distractorsDown"
"","","","","","html-keyboard-response","32","397071","0.0-14.0-0.0-0.9","60521e44653a99113e8d7927","619531dcf66c91622fa1b861","619595d88483eed60ad86646","null","","null","","","","","main_T1_ITI","","","","",""
"","","","","","visual-search-circle","33","399089","0.0-14.0-0.0-1.9","60521e44653a99113e8d7927","619531dcf66c91622fa1b861","619595d88483eed60ad86646","1006.1000000238419","","s","false","[[237,6],[6,362],[362,593],[593,237]]","true","4","main_T2_Trial","d","img/Fire_Down_Target.gif","[""img/Fire_Up_Distractor.gif"",""img/Fire_Up_Distractor.gif"",""img/Fire_Up_Distractor.gif"",""img/Fire_Up_Distractor.gif"",""img/Fire_Up_Distractor.gif"",""img/Fire_Up_Distractor.gif"",""img/Fire_Up_Distractor.gif"",""img/Fire_Up_Distractor.gif"",""img/Fire_Up_Distractor.gif"",""img/Fire_Up_Distractor.gif"",""img/Fire_Up_Distractor.gif"",""img/Fire_Up_Distractor.gif""]","4","targetDown_distractorsUp"
"","","","","","html-keyboard-response","34","399092","0.0-14.0-0.0-0.10","60521e44653a99113e8d7927","619531dcf66c91622fa1b861","619595d88483eed60ad86646","null","","null","","","","","main_T1_ITI","","","","",""
"","","","","","visual-search-circle","35","400993","0.0-14.0-0.0-1.10","60521e44653a99113e8d7927","619531dcf66c91622fa1b861","619595d88483eed60ad86646","893.3000000119209","","s","false","[[80,95],[13,387],[232,592],[519,504],[586,212],[367,7]]","true","6","main_T2_Trial","d","img/Fire_Down_Target.gif","[""img/Fire_Up_Distractor.gif"",""img/Fire_Up_Distractor.gif"",""img/Fire_Up_Distractor.gif"",""img/Fire_Up_Distractor.gif"",""img/Fire_Up_Distractor.gif"",""img/Fire_Up_Distractor.gif"",""img/Fire_Up_Distractor.gif"",""img/Fire_Up_Distractor.gif"",""img/Fire_Up_Distractor.gif"",""img/Fire_Up_Distractor.gif"",""img/Fire_Up_Distractor.gif"",""img/Fire_Up_Distractor.gif""]","6","targetDown_distractorsUp"
"","","","","","html-keyboard-response","36","400998","0.0-14.0-0.0-0.11","60521e44653a99113e8d7927","619531dcf66c91622fa1b861","619595d88483eed60ad86646","null","","null","","","","","main_T1_ITI","","","","",""
"","","","","","visual-search-circle","37","403921","0.0-14.0-0.0-1.11","60521e44653a99113e8d7927","619531dcf66c91622fa1b861","619595d88483eed60ad86646","1918","","s","false","[[599,320],[320,0],[0,279],[279,599]]","true","4","main_T2_Trial","d","img/Fire_Down_Target.gif","[""img/Fire_Up_Distractor.gif"",""img/Fire_Up_Distractor.gif"",""img/Fire_Up_Distractor.gif"",""img/Fire_Up_Distractor.gif"",""img/Fire_Up_Distractor.gif"",""img/Fire_Up_Distractor.gif"",""img/Fire_Up_Distractor.gif"",""img/Fire_Up_Distractor.gif"",""img/Fire_Up_Distractor.gif"",""img/Fire_Up_Distractor.gif"",""img/Fire_Up_Distractor.gif"",""img/Fire_Up_Distractor.gif""]","4","targetDown_distractorsUp"
"","","","","","html-keyboard-response","38","403922","0.0-14.0-0.0-0.12","60521e44653a99113e8d7927","619531dcf66c91622fa1b861","619595d88483eed60ad86646","null","","null","","","","","main_T1_ITI","","","","",""
"","","","","","visual-search-circle","39","405892","0.0-14.0-0.0-1.12","60521e44653a99113e8d7927","619531dcf66c91622fa1b861","619595d88483eed60ad86646","959.5","","s","true","[[0,310],[310,599],[599,289],[289,0]]","false","4","main_T2_Trial","s","img/Fire_Up_Target.gif","[""img/Fire_Down_Distractor.gif"",""img/Fire_Down_Distractor.gif"",""img/Fire_Down_Distractor.gif"",""img/Fire_Down_Distractor.gif"",""img/Fire_Down_Distractor.gif"",""img/Fire_Down_Distractor.gif"",""img/Fire_Down_Distractor.gif"",""img/Fire_Down_Distractor.gif"",""img/Fire_Down_Distractor.gif"",""img/Fire_Down_Distractor.gif"",""img/Fire_Down_Distractor.gif"",""img/Fire_Down_Distractor.gif""]","4","targetUp_distractorsDown"
"","","","","","html-keyboard-response","40","405896","0.0-14.0-0.0-0.13","60521e44653a99113e8d7927","619531dcf66c91622fa1b861","619595d88483eed60ad86646","null","","null","","","","","main_T1_ITI","","","","",""
"","","","","","visual-search-circle","41","407687","0.0-14.0-0.0-1.13","60521e44653a99113e8d7927","619531dcf66c91622fa1b861","619595d88483eed60ad86646","776.6999999880791","","d","true","[[187,21],[12,214],[53,471],[280,599],[521,501],[596,252],[447,38]]","true","7","main_T2_Trial","d","img/Fire_Down_Target.gif","[""img/Fire_Up_Distractor.gif"",""img/Fire_Up_Distractor.gif"",""img/Fire_Up_Distractor.gif"",""img/Fire_Up_Distractor.gif"",""img/Fire_Up_Distractor.gif"",""img/Fire_Up_Distractor.gif"",""img/Fire_Up_Distractor.gif"",""img/Fire_Up_Distractor.gif"",""img/Fire_Up_Distractor.gif"",""img/Fire_Up_Distractor.gif"",""img/Fire_Up_Distractor.gif"",""img/Fire_Up_Distractor.gif""]","7","targetDown_distractorsUp"
"","","","","","html-keyboard-response","42","407689","0.0-14.0-0.0-0.14","60521e44653a99113e8d7927","619531dcf66c91622fa1b861","619595d88483eed60ad86646","null","","null","","","","","main_T1_ITI","","","","",""
"","","","","","visual-search-circle","43","409489","0.0-14.0-0.0-1.14","60521e44653a99113e8d7927","619531dcf66c91622fa1b861","619595d88483eed60ad86646","790.3000000119209","","d","true","[[536,484],[484,63],[63,115],[115,536]]","true","4","main_T2_Trial","d","img/Fire_Down_Target.gif","[""img/Fire_Up_Distractor.gif"",""img/Fire_Up_Distractor.gif"",""img/Fire_Up_Distractor.gif"",""img/Fire_Up_Distractor.gif"",""img/Fire_Up_Distractor.gif"",""img/Fire_Up_Distractor.gif"",""img/Fire_Up_Distractor.gif"",""img/Fire_Up_Distractor.gif"",""img/Fire_Up_Distractor.gif"",""img/Fire_Up_Distractor.gif"",""img/Fire_Up_Distractor.gif"",""img/Fire_Up_Distractor.gif""]","4","targetDown_distractorsUp"
"","","","","","html-keyboard-response","44","409491","0.0-14.0-0.0-0.15","60521e44653a99113e8d7927","619531dcf66c91622fa1b861","619595d88483eed60ad86646","null","","null","","","","","main_T1_ITI","","","","",""
"","","","","","visual-search-circle","45","412218","0.0-14.0-0.0-1.15","60521e44653a99113e8d7927","619531dcf66c91622fa1b861","619595d88483eed60ad86646","1719.5","","s","true","[[60,119],[23,417],[263,597],[539,480],[576,182],[336,2]]","false","6","main_T2_Trial","s","img/Fire_Down_Target.gif","[""img/Fire_Up_Distractor.gif"",""img/Fire_Up_Distractor.gif"",""img/Fire_Up_Distractor.gif"",""img/Fire_Up_Distractor.gif"",""img/Fire_Up_Distractor.gif"",""img/Fire_Up_Distractor.gif"",""img/Fire_Up_Distractor.gif"",""img/Fire_Up_Distractor.gif"",""img/Fire_Up_Distractor.gif"",""img/Fire_Up_Distractor.gif"",""img/Fire_Up_Distractor.gif"",""img/Fire_Up_Distractor.gif""]","6","targetDown_distractorsUp"
"","","","","","html-keyboard-response","46","412220","0.0-14.0-0.0-0.16","60521e44653a99113e8d7927","619531dcf66c91622fa1b861","619595d88483eed60ad86646","null","","null","","","","","main_T1_ITI","","","","",""
"","","","","","visual-search-circle","47","414376","0.0-14.0-0.0-1.16","60521e44653a99113e8d7927","619531dcf66c91622fa1b861","619595d88483eed60ad86646","1138.300000011921","","s","false","[[569,168],[365,7],[111,66],[0,301],[114,535],[368,592],[570,428]]","true","7","main_T2_Trial","d","img/Fire_Up_Target.gif","[""img/Fire_Down_Distractor.gif"",""img/Fire_Down_Distractor.gif"",""img/Fire_Down_Distractor.gif"",""img/Fire_Down_Distractor.gif"",""img/Fire_Down_Distractor.gif"",""img/Fire_Down_Distractor.gif"",""img/Fire_Down_Distractor.gif"",""img/Fire_Down_Distractor.gif"",""img/Fire_Down_Distractor.gif"",""img/Fire_Down_Distractor.gif"",""img/Fire_Down_Distractor.gif"",""img/Fire_Down_Distractor.gif""]","7","targetUp_distractorsDown"
"","","","","","html-keyboard-response","48","414379","0.0-14.0-0.0-0.17","60521e44653a99113e8d7927","619531dcf66c91622fa1b861","619595d88483eed60ad86646","null","","null","","","","","main_T1_ITI","","","","",""
"","","","","","visual-search-circle","49","416367","0.0-14.0-0.0-1.17","60521e44653a99113e8d7927","619531dcf66c91622fa1b861","619595d88483eed60ad86646","970.3999999761581","","d","true","[[352,595],[595,247],[247,4],[4,352]]","true","4","main_T2_Trial","d","img/Fire_Up_Target.gif","[""img/Fire_Down_Distractor.gif"",""img/Fire_Down_Distractor.gif"",""img/Fire_Down_Distractor.gif"",""img/Fire_Down_Distractor.gif"",""img/Fire_Down_Distractor.gif"",""img/Fire_Down_Distractor.gif"",""img/Fire_Down_Distractor.gif"",""img/Fire_Down_Distractor.gif"",""img/Fire_Down_Distractor.gif"",""img/Fire_Down_Distractor.gif"",""img/Fire_Down_Distractor.gif"",""img/Fire_Down_Distractor.gif""]","4","targetUp_distractorsDown"
"","","","","","html-keyboard-response","50","416370","0.0-14.0-0.0-0.18","60521e44653a99113e8d7927","619531dcf66c91622fa1b861","619595d88483eed60ad86646","null","","null","","","","","main_T1_ITI","","","","",""
"","","","","","visual-search-circle","51","418528","0.0-14.0-0.0-1.18","60521e44653a99113e8d7927","619531dcf66c91622fa1b861","619595d88483eed60ad86646","1146.5","","d","true","[[500,522],[599,282],[472,54],[215,12],[22,186],[37,446],[250,595]]","true","7","main_T2_Trial","d","img/Fire_Up_Target.gif","[""img/Fire_Down_Distractor.gif"",""img/Fire_Down_Distractor.gif"",""img/Fire_Down_Distractor.gif"",""img/Fire_Down_Distractor.gif"",""img/Fire_Down_Distractor.gif"",""img/Fire_Down_Distractor.gif"",""img/Fire_Down_Distractor.gif"",""img/Fire_Down_Distractor.gif"",""img/Fire_Down_Distractor.gif"",""img/Fire_Down_Distractor.gif"",""img/Fire_Down_Distractor.gif"",""img/Fire_Down_Distractor.gif""]","7","targetUp_distractorsDown"
"","","","","","html-keyboard-response","52","424993","0.0-14.0-0.0-0.19","60521e44653a99113e8d7927","619531dcf66c91622fa1b861","619595d88483eed60ad86646","6464.699999988079","Wow! You've completed 20 out of 160 trials! </p> <p>  </p><p> Take a quick break, then press any key when you're ready to continue."," ","","","","","main_T1_ITI","","","","",""
"","","","","","visual-search-circle","53","427269","0.0-14.0-0.0-1.19","60521e44653a99113e8d7927","619531dcf66c91622fa1b861","619595d88483eed60ad86646","1266.6000000238419","","d","true","[[103,73],[73,496],[496,526],[526,103]]","true","4","main_T2_Trial","d","img/Fire_Up_Target.gif","[""img/Fire_Down_Distractor.gif"",""img/Fire_Down_Distractor.gif"",""img/Fire_Down_Distractor.gif"",""img/Fire_Down_Distractor.gif"",""img/Fire_Down_Distractor.gif"",""img/Fire_Down_Distractor.gif"",""img/Fire_Down_Distractor.gif"",""img/Fire_Down_Distractor.gif"",""img/Fire_Down_Distractor.gif"",""img/Fire_Down_Distractor.gif"",""img/Fire_Down_Distractor.gif"",""img/Fire_Down_Distractor.gif""]","4","targetUp_distractorsDown"
"","","","","","html-keyboard-response","54","427274","0.0-14.0-0.0-0.20","60521e44653a99113e8d7927","619531dcf66c91622fa1b861","619595d88483eed60ad86646","null","","null","","","","","main_T1_ITI","","","","",""
"","","","","","visual-search-circle","55","429491","0.0-14.0-0.0-1.20","60521e44653a99113e8d7927","619531dcf66c91622fa1b861","619595d88483eed60ad86646","1206","","s","true","[[463,48],[163,32],[0,284],[136,551],[436,567],[599,315]]","false","6","main_T2_Trial","s","img/Fire_Up_Target.gif","[""img/Fire_Down_Distractor.gif"",""img/Fire_Down_Distractor.gif"",""img/Fire_Down_Distractor.gif"",""img/Fire_Down_Distractor.gif"",""img/Fire_Down_Distractor.gif"",""img/Fire_Down_Distractor.gif"",""img/Fire_Down_Distractor.gif"",""img/Fire_Down_Distractor.gif"",""img/Fire_Down_Distractor.gif"",""img/Fire_Down_Distractor.gif"",""img/Fire_Down_Distractor.gif"",""img/Fire_Down_Distractor.gif""]","6","targetUp_distractorsDown"
"","","","","","html-keyboard-response","56","429493","0.0-14.0-0.0-0.21","60521e44653a99113e8d7927","619531dcf66c91622fa1b861","619595d88483eed60ad86646","null","","null","","","","","main_T1_ITI","","","","",""
"","","","","","visual-search-circle","57","431314","0.0-14.0-0.0-1.21","60521e44653a99113e8d7927","619531dcf66c91622fa1b861","619595d88483eed60ad86646","809.6999999880791","","s","true","[[212,586],[586,387],[387,13],[13,212]]","false","4","main_T2_Trial","s","img/Fire_Up_Target.gif","[""img/Fire_Down_Distractor.gif"",""img/Fire_Down_Distractor.gif"",""img/Fire_Down_Distractor.gif"",""img/Fire_Down_Distractor.gif"",""img/Fire_Down_Distractor.gif"",""img/Fire_Down_Distractor.gif"",""img/Fire_Down_Distractor.gif"",""img/Fire_Down_Distractor.gif"",""img/Fire_Down_Distractor.gif"",""img/Fire_Down_Distractor.gif"",""img/Fire_Down_Distractor.gif"",""img/Fire_Down_Distractor.gif""]","4","targetUp_distractorsDown"
"","","","","","html-keyboard-response","58","431316","0.0-14.0-0.0-0.22","60521e44653a99113e8d7927","619531dcf66c91622fa1b861","619595d88483eed60ad86646","null","","null","","","","","main_T1_ITI","","","","",""
"","","","","","visual-search-circle","59","433166","0.0-14.0-0.0-1.22","60521e44653a99113e8d7927","619531dcf66c91622fa1b861","619595d88483eed60ad86646","833.5","","d","true","[[526,103],[320,0],[103,73],[0,279],[73,496],[279,599],[496,526],[599,320]]","true","8","main_T2_Trial","d","img/Fire_Down_Target.gif","[""img/Fire_Up_Distractor.gif"",""img/Fire_Up_Distractor.gif"",""img/Fire_Up_Distractor.gif"",""img/Fire_Up_Distractor.gif"",""img/Fire_Up_Distractor.gif"",""img/Fire_Up_Distractor.gif"",""img/Fire_Up_Distractor.gif"",""img/Fire_Up_Distractor.gif"",""img/Fire_Up_Distractor.gif"",""img/Fire_Up_Distractor.gif"",""img/Fire_Up_Distractor.gif"",""img/Fire_Up_Distractor.gif""]","8","targetDown_distractorsUp"
"","","","","","html-keyboard-response","60","433168","0.0-14.0-0.0-0.23","60521e44653a99113e8d7927","619531dcf66c91622fa1b861","619595d88483eed60ad86646","null","","null","","","","","main_T1_ITI","","","","",""
"","","","","","visual-search-circle","61","435129","0.0-14.0-0.0-1.23","60521e44653a99113e8d7927","619531dcf66c91622fa1b861","619595d88483eed60ad86646","944.7999999523163","","d","true","[[141,554],[492,529],[578,187],[279,0],[8,227]]","true","5","main_T2_Trial","d","img/Fire_Up_Target.gif","[""img/Fire_Down_Distractor.gif"",""img/Fire_Down_Distractor.gif"",""img/Fire_Down_Distractor.gif"",""img/Fire_Down_Distractor.gif"",""img/Fire_Down_Distractor.gif"",""img/Fire_Down_Distractor.gif"",""img/Fire_Down_Distractor.gif"",""img/Fire_Down_Distractor.gif"",""img/Fire_Down_Distractor.gif"",""img/Fire_Down_Distractor.gif"",""img/Fire_Down_Distractor.gif"",""img/Fire_Down_Distractor.gif""]","5","targetUp_distractorsDown"
"","","","","","html-keyboard-response","62","435131","0.0-14.0-0.0-0.24","60521e44653a99113e8d7927","619531dcf66c91622fa1b861","619595d88483eed60ad86646","null","","null","","","","","main_T1_ITI","","","","",""
"","","","","","visual-search-circle","63","437580","0.0-14.0-0.0-1.24","60521e44653a99113e8d7927","619531dcf66c91622fa1b861","619595d88483eed60ad86646","1434.4000000357628","","d","false","[[326,598],[549,465],[585,208],[406,19],[146,42],[2,258],[82,506]]","false","7","main_T2_Trial","s","img/Fire_Up_Target.gif","[""img/Fire_Down_Distractor.gif"",""img/Fire_Down_Distractor.gif"",""img/Fire_Down_Distractor.gif"",""img/Fire_Down_Distractor.gif"",""img/Fire_Down_Distractor.gif"",""img/Fire_Down_Distractor.gif"",""img/Fire_Down_Distractor.gif"",""img/Fire_Down_Distractor.gif"",""img/Fire_Down_Distractor.gif"",""img/Fire_Down_Distractor.gif"",""img/Fire_Down_Distractor.gif"",""img/Fire_Down_Distractor.gif""]","7","targetUp_distractorsDown"
"","","","","","html-keyboard-response","64","437586","0.0-14.0-0.0-0.25","60521e44653a99113e8d7927","619531dcf66c91622fa1b861","619595d88483eed60ad86646","null","","null","","","","","main_T1_ITI","","","","",""
"","","","","","visual-search-circle","65","439699","0.0-14.0-0.0-1.25","60521e44653a99113e8d7927","619531dcf66c91622fa1b861","619595d88483eed60ad86646","1099.4000000357628","","s","false","[[567,436],[551,136],[284,0],[32,163],[48,463],[315,599]]","true","6","main_T2_Trial","d","img/Fire_Down_Target.gif","[""img/Fire_Up_Distractor.gif"",""img/Fire_Up_Distractor.gif"",""img/Fire_Up_Distractor.gif"",""img/Fire_Up_Distractor.gif"",""img/Fire_Up_Distractor.gif"",""img/Fire_Up_Distractor.gif"",""img/Fire_Up_Distractor.gif"",""img/Fire_Up_Distractor.gif"",""img/Fire_Up_Distractor.gif"",""img/Fire_Up_Distractor.gif"",""img/Fire_Up_Distractor.gif"",""img/Fire_Up_Distractor.gif""]","6","targetDown_distractorsUp"
"","","","","","html-keyboard-response","66","439703","0.0-14.0-0.0-0.26","60521e44653a99113e8d7927","619531dcf66c91622fa1b861","619595d88483eed60ad86646","null","","null","","","","","main_T1_ITI","","","","",""
"","","","","","visual-search-circle","67","442037","0.0-14.0-0.0-1.26","60521e44653a99113e8d7927","619531dcf66c91622fa1b861","619595d88483eed60ad86646","1320.9000000357628","","d","true","[[599,279],[496,73],[279,0],[73,103],[0,320],[103,526],[320,599],[526,496]]","true","8","main_T2_Trial","d","img/Fire_Up_Target.gif","[""img/Fire_Down_Distractor.gif"",""img/Fire_Down_Distractor.gif"",""img/Fire_Down_Distractor.gif"",""img/Fire_Down_Distractor.gif"",""img/Fire_Down_Distractor.gif"",""img/Fire_Down_Distractor.gif"",""img/Fire_Down_Distractor.gif"",""img/Fire_Down_Distractor.gif"",""img/Fire_Down_Distractor.gif"",""img/Fire_Down_Distractor.gif"",""img/Fire_Down_Distractor.gif"",""img/Fire_Down_Distractor.gif""]","8","targetUp_distractorsDown"
"","","","","","html-keyboard-response","68","442039","0.0-14.0-0.0-0.27","60521e44653a99113e8d7927","619531dcf66c91622fa1b861","619595d88483eed60ad86646","null","","null","","","","","main_T1_ITI","","","","",""
"","","","","","visual-search-circle","69","444318","0.0-14.0-0.0-1.27","60521e44653a99113e8d7927","619531dcf66c91622fa1b861","619595d88483eed60ad86646","1267.0999999642372","","d","true","[[585,392],[392,14],[14,207],[207,585]]","true","4","main_T2_Trial","d","img/Fire_Down_Target.gif","[""img/Fire_Up_Distractor.gif"",""img/Fire_Up_Distractor.gif"",""img/Fire_Up_Distractor.gif"",""img/Fire_Up_Distractor.gif"",""img/Fire_Up_Distractor.gif"",""img/Fire_Up_Distractor.gif"",""img/Fire_Up_Distractor.gif"",""img/Fire_Up_Distractor.gif"",""img/Fire_Up_Distractor.gif"",""img/Fire_Up_Distractor.gif"",""img/Fire_Up_Distractor.gif"",""img/Fire_Up_Distractor.gif""]","4","targetDown_distractorsUp"
"","","","","","html-keyboard-response","70","444321","0.0-14.0-0.0-0.28","60521e44653a99113e8d7927","619531dcf66c91622fa1b861","619595d88483eed60ad86646","null","","null","","","","","main_T1_ITI","","","","",""
"","","","","","visual-search-circle","71","446535","0.0-14.0-0.0-1.28","60521e44653a99113e8d7927","619531dcf66c91622fa1b861","619595d88483eed60ad86646","1198.1000000238419","","d","true","[[182,23],[21,187],[23,417],[187,578],[417,576],[578,412],[576,182],[412,21]]","true","8","main_T2_Trial","d","img/Fire_Down_Target.gif","[""img/Fire_Up_Distractor.gif"",""img/Fire_Up_Distractor.gif"",""img/Fire_Up_Distractor.gif"",""img/Fire_Up_Distractor.gif"",""img/Fire_Up_Distractor.gif"",""img/Fire_Up_Distractor.gif"",""img/Fire_Up_Distractor.gif"",""img/Fire_Up_Distractor.gif"",""img/Fire_Up_Distractor.gif"",""img/Fire_Up_Distractor.gif"",""img/Fire_Up_Distractor.gif"",""img/Fire_Up_Distractor.gif""]","8","targetDown_distractorsUp"
"","","","","","html-keyboard-response","72","446538","0.0-14.0-0.0-0.29","60521e44653a99113e8d7927","619531dcf66c91622fa1b861","619595d88483eed60ad86646","null","","null","","","","","main_T1_ITI","","","","",""
"","","","","","visual-search-circle","73","449628","0.0-14.0-0.0-1.29","60521e44653a99113e8d7927","619531dcf66c91622fa1b861","619595d88483eed60ad86646","2073.399999976158","","d","true","[[35,440],[352,595],[597,341],[431,30],[84,91]]","true","5","main_T2_Trial","d","img/Fire_Down_Target.gif","[""img/Fire_Up_Distractor.gif"",""img/Fire_Up_Distractor.gif"",""img/Fire_Up_Distractor.gif"",""img/Fire_Up_Distractor.gif"",""img/Fire_Up_Distractor.gif"",""img/Fire_Up_Distractor.gif"",""img/Fire_Up_Distractor.gif"",""img/Fire_Up_Distractor.gif"",""img/Fire_Up_Distractor.gif"",""img/Fire_Up_Distractor.gif"",""img/Fire_Up_Distractor.gif"",""img/Fire_Up_Distractor.gif""]","5","targetDown_distractorsUp"
"","","","","","html-keyboard-response","74","449635","0.0-14.0-0.0-0.30","60521e44653a99113e8d7927","619531dcf66c91622fa1b861","619595d88483eed60ad86646","null","","null","","","","","main_T1_ITI","","","","",""
"","","","","","visual-search-circle","75","451773","0.0-14.0-0.0-1.30","60521e44653a99113e8d7927","619531dcf66c91622fa1b861","619595d88483eed60ad86646","1128.3999999761581","","s","true","[[212,586],[545,472],[539,119],[202,16],[0,305]]","false","5","main_T2_Trial","s","img/Fire_Up_Target.gif","[""img/Fire_Down_Distractor.gif"",""img/Fire_Down_Distractor.gif"",""img/Fire_Down_Distractor.gif"",""img/Fire_Down_Distractor.gif"",""img/Fire_Down_Distractor.gif"",""img/Fire_Down_Distractor.gif"",""img/Fire_Down_Distractor.gif"",""img/Fire_Down_Distractor.gif"",""img/Fire_Down_Distractor.gif"",""img/Fire_Down_Distractor.gif"",""img/Fire_Down_Distractor.gif"",""img/Fire_Down_Distractor.gif""]","5","targetUp_distractorsDown"
"","","","","","html-keyboard-response","76","451775","0.0-14.0-0.0-0.31","60521e44653a99113e8d7927","619531dcf66c91622fa1b861","619595d88483eed60ad86646","null","","null","","","","","main_T1_ITI","","","","",""
"","","","","","visual-search-circle","77","453980","0.0-14.0-0.0-1.31","60521e44653a99113e8d7927","619531dcf66c91622fa1b861","619595d88483eed60ad86646","1193.6000000238419","","s","true","[[37,154],[42,454],[305,599],[562,445],[557,145],[294,0]]","false","6","main_T2_Trial","s","img/Fire_Up_Target.gif","[""img/Fire_Down_Distractor.gif"",""img/Fire_Down_Distractor.gif"",""img/Fire_Down_Distractor.gif"",""img/Fire_Down_Distractor.gif"",""img/Fire_Down_Distractor.gif"",""img/Fire_Down_Distractor.gif"",""img/Fire_Down_Distractor.gif"",""img/Fire_Down_Distractor.gif"",""img/Fire_Down_Distractor.gif"",""img/Fire_Down_Distractor.gif"",""img/Fire_Down_Distractor.gif"",""img/Fire_Down_Distractor.gif""]","6","targetUp_distractorsDown"
"","","","","","html-keyboard-response","78","453982","0.0-14.0-0.0-0.32","60521e44653a99113e8d7927","619531dcf66c91622fa1b861","619595d88483eed60ad86646","null","","null","","","","","main_T1_ITI","","","","",""
"","","","","","visual-search-circle","79","456332","0.0-14.0-0.0-1.32","60521e44653a99113e8d7927","619531dcf66c91622fa1b861","619595d88483eed60ad86646","1345.300000011921","","s","true","[[367,7],[7,232],[232,592],[592,367]]","false","4","main_T2_Trial","s","img/Fire_Down_Target.gif","[""img/Fire_Up_Distractor.gif"",""img/Fire_Up_Distractor.gif"",""img/Fire_Up_Distractor.gif"",""img/Fire_Up_Distractor.gif"",""img/Fire_Up_Distractor.gif"",""img/Fire_Up_Distractor.gif"",""img/Fire_Up_Distractor.gif"",""img/Fire_Up_Distractor.gif"",""img/Fire_Up_Distractor.gif"",""img/Fire_Up_Distractor.gif"",""img/Fire_Up_Distractor.gif"",""img/Fire_Up_Distractor.gif""]","4","targetDown_distractorsUp"
"","","","","","html-keyboard-response","80","456335","0.0-14.0-0.0-0.33","60521e44653a99113e8d7927","619531dcf66c91622fa1b861","619595d88483eed60ad86646","null","","null","","","","","main_T1_ITI","","","","",""
"","","","","","visual-search-circle","81","458810","0.0-14.0-0.0-1.33","60521e44653a99113e8d7927","619531dcf66c91622fa1b861","619595d88483eed60ad86646","1466.699999988079","","s","true","[[217,11],[8,227],[91,515],[382,588],[591,372],[508,84]]","false","6","main_T2_Trial","s","img/Fire_Up_Target.gif","[""img/Fire_Down_Distractor.gif"",""img/Fire_Down_Distractor.gif"",""img/Fire_Down_Distractor.gif"",""img/Fire_Down_Distractor.gif"",""img/Fire_Down_Distractor.gif"",""img/Fire_Down_Distractor.gif"",""img/Fire_Down_Distractor.gif"",""img/Fire_Down_Distractor.gif"",""img/Fire_Down_Distractor.gif"",""img/Fire_Down_Distractor.gif"",""img/Fire_Down_Distractor.gif"",""img/Fire_Down_Distractor.gif""]","6","targetUp_distractorsDown"
"","","","","","html-keyboard-response","82","458813","0.0-14.0-0.0-0.34","60521e44653a99113e8d7927","619531dcf66c91622fa1b861","619595d88483eed60ad86646","null","","null","","","","","main_T1_ITI","","","","",""
"","","","","","visual-search-circle","83","461028","0.0-14.0-0.0-1.34","60521e44653a99113e8d7927","619531dcf66c91622fa1b861","619595d88483eed60ad86646","1210.5999999642372","","s","true","[[35,440],[212,586],[440,564],[586,387],[564,159],[387,13],[159,35],[13,212]]","false","8","main_T2_Trial","s","img/Fire_Up_Target.gif","[""img/Fire_Down_Distractor.gif"",""img/Fire_Down_Distractor.gif"",""img/Fire_Down_Distractor.gif"",""img/Fire_Down_Distractor.gif"",""img/Fire_Down_Distractor.gif"",""img/Fire_Down_Distractor.gif"",""img/Fire_Down_Distractor.gif"",""img/Fire_Down_Distractor.gif"",""img/Fire_Down_Distractor.gif"",""img/Fire_Down_Distractor.gif"",""img/Fire_Down_Distractor.gif"",""img/Fire_Down_Distractor.gif""]","8","targetUp_distractorsDown"
"","","","","","html-keyboard-response","84","461030","0.0-14.0-0.0-0.35","60521e44653a99113e8d7927","619531dcf66c91622fa1b861","619595d88483eed60ad86646","null","","null","","","","","main_T1_ITI","","","","",""
"","","","","","visual-search-circle","85","462966","0.0-14.0-0.0-1.35","60521e44653a99113e8d7927","619531dcf66c91622fa1b861","619595d88483eed60ad86646","928.0999999642372","","s","true","[[599,284],[500,77],[284,0],[77,99],[0,315],[99,522],[315,599],[522,500]]","false","8","main_T2_Trial","s","img/Fire_Down_Target.gif","[""img/Fire_Up_Distractor.gif"",""img/Fire_Up_Distractor.gif"",""img/Fire_Up_Distractor.gif"",""img/Fire_Up_Distractor.gif"",""img/Fire_Up_Distractor.gif"",""img/Fire_Up_Distractor.gif"",""img/Fire_Up_Distractor.gif"",""img/Fire_Up_Distractor.gif"",""img/Fire_Up_Distractor.gif"",""img/Fire_Up_Distractor.gif"",""img/Fire_Up_Distractor.gif"",""img/Fire_Up_Distractor.gif""]","8","targetDown_distractorsUp"
"","","","","","html-keyboard-response","86","462967","0.0-14.0-0.0-0.36","60521e44653a99113e8d7927","619531dcf66c91622fa1b861","619595d88483eed60ad86646","null","","null","","","","","main_T1_ITI","","","","",""
"","","","","","visual-search-circle","87","464917","0.0-14.0-0.0-1.36","60521e44653a99113e8d7927","619531dcf66c91622fa1b861","619595d88483eed60ad86646","935.7999999523163","","d","true","[[95,80],[0,323],[131,548],[389,586],[579,408],[559,149],[343,3]]","true","7","main_T2_Trial","d","img/Fire_Up_Target.gif","[""img/Fire_Down_Distractor.gif"",""img/Fire_Down_Distractor.gif"",""img/Fire_Down_Distractor.gif"",""img/Fire_Down_Distractor.gif"",""img/Fire_Down_Distractor.gif"",""img/Fire_Down_Distractor.gif"",""img/Fire_Down_Distractor.gif"",""img/Fire_Down_Distractor.gif"",""img/Fire_Down_Distractor.gif"",""img/Fire_Down_Distractor.gif"",""img/Fire_Down_Distractor.gif"",""img/Fire_Down_Distractor.gif""]","7","targetUp_distractorsDown"
"","","","","","html-keyboard-response","88","464924","0.0-14.0-0.0-0.37","60521e44653a99113e8d7927","619531dcf66c91622fa1b861","619595d88483eed60ad86646","null","","null","","","","","main_T1_ITI","","","","",""
"","","","","","visual-search-circle","89","467016","0.0-14.0-0.0-1.37","60521e44653a99113e8d7927","619531dcf66c91622fa1b861","619595d88483eed60ad86646","1075.5","","s","true","[[57,476],[476,542],[542,123],[123,57]]","false","4","main_T2_Trial","s","img/Fire_Down_Target.gif","[""img/Fire_Up_Distractor.gif"",""img/Fire_Up_Distractor.gif"",""img/Fire_Up_Distractor.gif"",""img/Fire_Up_Distractor.gif"",""img/Fire_Up_Distractor.gif"",""img/Fire_Up_Distractor.gif"",""img/Fire_Up_Distractor.gif"",""img/Fire_Up_Distractor.gif"",""img/Fire_Up_Distractor.gif"",""img/Fire_Up_Distractor.gif"",""img/Fire_Up_Distractor.gif"",""img/Fire_Up_Distractor.gif""]","4","targetDown_distractorsUp"
"","","","","","html-keyboard-response","90","467018","0.0-14.0-0.0-0.38","60521e44653a99113e8d7927","619531dcf66c91622fa1b861","619595d88483eed60ad86646","null","","null","","","","","main_T1_ITI","","","","",""
"","","","","","visual-search-circle","91","469348","0.0-14.0-0.0-1.38","60521e44653a99113e8d7927","619531dcf66c91622fa1b861","619595d88483eed60ad86646","1323.4000000357628","","s","true","[[7,367],[212,586],[504,519],[592,232],[387,13],[95,80]]","false","6","main_T2_Trial","s","img/Fire_Up_Target.gif","[""img/Fire_Down_Distractor.gif"",""img/Fire_Down_Distractor.gif"",""img/Fire_Down_Distractor.gif"",""img/Fire_Down_Distractor.gif"",""img/Fire_Down_Distractor.gif"",""img/Fire_Down_Distractor.gif"",""img/Fire_Down_Distractor.gif"",""img/Fire_Down_Distractor.gif"",""img/Fire_Down_Distractor.gif"",""img/Fire_Down_Distractor.gif"",""img/Fire_Down_Distractor.gif"",""img/Fire_Down_Distractor.gif""]","6","targetUp_distractorsDown"
"","","","","","html-keyboard-response","92","482020","0.0-14.0-0.0-0.39","60521e44653a99113e8d7927","619531dcf66c91622fa1b861","619595d88483eed60ad86646","12671.399999976158","Wow! You've completed 40 out of 160 trials! </p> <p>  </p><p> Take a quick break, then press any key when you're ready to continue.","s","","","","","main_T1_ITI","","","","",""
"","","","","","visual-search-circle","93","484402","0.0-14.0-0.0-1.39","60521e44653a99113e8d7927","619531dcf66c91622fa1b861","619595d88483eed60ad86646","1365.300000011921","","d","true","[[263,2],[63,115],[2,336],[115,536],[336,597],[536,484],[597,263],[484,63]]","true","8","main_T2_Trial","d","img/Fire_Down_Target.gif","[""img/Fire_Up_Distractor.gif"",""img/Fire_Up_Distractor.gif"",""img/Fire_Up_Distractor.gif"",""img/Fire_Up_Distractor.gif"",""img/Fire_Up_Distractor.gif"",""img/Fire_Up_Distractor.gif"",""img/Fire_Up_Distractor.gif"",""img/Fire_Up_Distractor.gif"",""img/Fire_Up_Distractor.gif"",""img/Fire_Up_Distractor.gif"",""img/Fire_Up_Distractor.gif"",""img/Fire_Up_Distractor.gif""]","8","targetDown_distractorsUp"
"","","","","","html-keyboard-response","94","484403","0.0-14.0-0.0-0.40","60521e44653a99113e8d7927","619531dcf66c91622fa1b861","619595d88483eed60ad86646","null","","null","","","","","main_T1_ITI","","","","",""
"","","","","","visual-search-circle","95","486213","0.0-14.0-0.0-1.40","60521e44653a99113e8d7927","619531dcf66c91622fa1b861","619595d88483eed60ad86646","793","","s","true","[[492,529],[598,326],[529,107],[326,1],[107,70],[1,273],[70,492],[273,598]]","false","8","main_T2_Trial","s","img/Fire_Up_Target.gif","[""img/Fire_Down_Distractor.gif"",""img/Fire_Down_Distractor.gif"",""img/Fire_Down_Distractor.gif"",""img/Fire_Down_Distractor.gif"",""img/Fire_Down_Distractor.gif"",""img/Fire_Down_Distractor.gif"",""img/Fire_Down_Distractor.gif"",""img/Fire_Down_Distractor.gif"",""img/Fire_Down_Distractor.gif"",""img/Fire_Down_Distractor.gif"",""img/Fire_Down_Distractor.gif"",""img/Fire_Down_Distractor.gif""]","8","targetUp_distractorsDown"
"","","","","","html-keyboard-response","96","486215","0.0-14.0-0.0-0.41","60521e44653a99113e8d7927","619531dcf66c91622fa1b861","619595d88483eed60ad86646","null","","null","","","","","main_T1_ITI","","","","",""
"","","","","","visual-search-circle","97","488648","0.0-14.0-0.0-1.41","60521e44653a99113e8d7927","619531dcf66c91622fa1b861","619595d88483eed60ad86646","1422.300000011921","","s","true","[[99,522],[315,599],[522,500],[599,284],[500,77],[284,0],[77,99],[0,315]]","false","8","main_T2_Trial","s","img/Fire_Up_Target.gif","[""img/Fire_Down_Distractor.gif"",""img/Fire_Down_Distractor.gif"",""img/Fire_Down_Distractor.gif"",""img/Fire_Down_Distractor.gif"",""img/Fire_Down_Distractor.gif"",""img/Fire_Down_Distractor.gif"",""img/Fire_Down_Distractor.gif"",""img/Fire_Down_Distractor.gif"",""img/Fire_Down_Distractor.gif"",""img/Fire_Down_Distractor.gif"",""img/Fire_Down_Distractor.gif"",""img/Fire_Down_Distractor.gif""]","8","targetUp_distractorsDown"
"","","","","","html-keyboard-response","98","488653","0.0-14.0-0.0-0.42","60521e44653a99113e8d7927","619531dcf66c91622fa1b861","619595d88483eed60ad86646","null","","null","","","","","main_T1_ITI","","","","",""
"","","","","","visual-search-circle","99","490255","0.0-14.0-0.0-1.42","60521e44653a99113e8d7927","619531dcf66c91622fa1b861","619595d88483eed60ad86646","594.8999999761581","","d","true","[[352,4],[35,159],[84,508],[431,569],[597,258]]","true","5","main_T2_Trial","d","img/Fire_Up_Target.gif","[""img/Fire_Down_Distractor.gif"",""img/Fire_Down_Distractor.gif"",""img/Fire_Down_Distractor.gif"",""img/Fire_Down_Distractor.gif"",""img/Fire_Down_Distractor.gif"",""img/Fire_Down_Distractor.gif"",""img/Fire_Down_Distractor.gif"",""img/Fire_Down_Distractor.gif"",""img/Fire_Down_Distractor.gif"",""img/Fire_Down_Distractor.gif"",""img/Fire_Down_Distractor.gif"",""img/Fire_Down_Distractor.gif""]","5","targetUp_distractorsDown"
"","","","","","html-keyboard-response","100","490257","0.0-14.0-0.0-0.43","60521e44653a99113e8d7927","619531dcf66c91622fa1b861","619595d88483eed60ad86646","null","","null","","","","","main_T1_ITI","","","","",""
"","","","","","visual-search-circle","101","491918","0.0-14.0-0.0-1.43","60521e44653a99113e8d7927","619531dcf66c91622fa1b861","619595d88483eed60ad86646","643.8999999761581","","d","true","[[4,247],[75,498],[314,599],[543,475],[588,218],[416,23],[156,36]]","true","7","main_T2_Trial","d","img/Fire_Up_Target.gif","[""img/Fire_Down_Distractor.gif"",""img/Fire_Down_Distractor.gif"",""img/Fire_Down_Distractor.gif"",""img/Fire_Down_Distractor.gif"",""img/Fire_Down_Distractor.gif"",""img/Fire_Down_Distractor.gif"",""img/Fire_Down_Distractor.gif"",""img/Fire_Down_Distractor.gif"",""img/Fire_Down_Distractor.gif"",""img/Fire_Down_Distractor.gif"",""img/Fire_Down_Distractor.gif"",""img/Fire_Down_Distractor.gif""]","7","targetUp_distractorsDown"
"","","","","","html-keyboard-response","102","491919","0.0-14.0-0.0-0.44","60521e44653a99113e8d7927","619531dcf66c91622fa1b861","619595d88483eed60ad86646","null","","null","","","","","main_T1_ITI","","","","",""
"","","","","","visual-search-circle","103","493714","0.0-14.0-0.0-1.44","60521e44653a99113e8d7927","619531dcf66c91622fa1b861","619595d88483eed60ad86646","787.1999999880791","","d","true","[[377,10],[48,136],[66,488],[407,580],[599,284]]","true","5","main_T2_Trial","d","img/Fire_Down_Target.gif","[""img/Fire_Up_Distractor.gif"",""img/Fire_Up_Distractor.gif"",""img/Fire_Up_Distractor.gif"",""img/Fire_Up_Distractor.gif"",""img/Fire_Up_Distractor.gif"",""img/Fire_Up_Distractor.gif"",""img/Fire_Up_Distractor.gif"",""img/Fire_Up_Distractor.gif"",""img/Fire_Up_Distractor.gif"",""img/Fire_Up_Distractor.gif"",""img/Fire_Up_Distractor.gif"",""img/Fire_Up_Distractor.gif""]","5","targetDown_distractorsUp"
"","","","","","html-keyboard-response","104","493715","0.0-14.0-0.0-0.45","60521e44653a99113e8d7927","619531dcf66c91622fa1b861","619595d88483eed60ad86646","null","","null","","","","","main_T1_ITI","","","","",""
"","","","","","visual-search-circle","105","495610","0.0-14.0-0.0-1.45","60521e44653a99113e8d7927","619531dcf66c91622fa1b861","619595d88483eed60ad86646","883.7999999523163","","d","true","[[512,512],[600,300],[512,87],[300,0],[87,87],[0,299],[87,512],[299,600]]","true","8","main_T2_Trial","d","img/Fire_Down_Target.gif","[""img/Fire_Up_Distractor.gif"",""img/Fire_Up_Distractor.gif"",""img/Fire_Up_Distractor.gif"",""img/Fire_Up_Distractor.gif"",""img/Fire_Up_Distractor.gif"",""img/Fire_Up_Distractor.gif"",""img/Fire_Up_Distractor.gif"",""img/Fire_Up_Distractor.gif"",""img/Fire_Up_Distractor.gif"",""img/Fire_Up_Distractor.gif"",""img/Fire_Up_Distractor.gif"",""img/Fire_Up_Distractor.gif""]","8","targetDown_distractorsUp"
"","","","","","html-keyboard-response","106","495613","0.0-14.0-0.0-0.46","60521e44653a99113e8d7927","619531dcf66c91622fa1b861","619595d88483eed60ad86646","null","","null","","","","","main_T1_ITI","","","","",""
"","","","","","visual-search-circle","107","497426","0.0-14.0-0.0-1.46","60521e44653a99113e8d7927","619531dcf66c91622fa1b861","619595d88483eed60ad86646","794.8000000119209","","s","true","[[115,536],[336,597],[536,484],[597,263],[484,63],[263,2],[63,115],[2,336]]","false","8","main_T2_Trial","s","img/Fire_Down_Target.gif","[""img/Fire_Up_Distractor.gif"",""img/Fire_Up_Distractor.gif"",""img/Fire_Up_Distractor.gif"",""img/Fire_Up_Distractor.gif"",""img/Fire_Up_Distractor.gif"",""img/Fire_Up_Distractor.gif"",""img/Fire_Up_Distractor.gif"",""img/Fire_Up_Distractor.gif"",""img/Fire_Up_Distractor.gif"",""img/Fire_Up_Distractor.gif"",""img/Fire_Up_Distractor.gif"",""img/Fire_Up_Distractor.gif""]","8","targetDown_distractorsUp"
"","","","","","html-keyboard-response","108","497428","0.0-14.0-0.0-0.47","60521e44653a99113e8d7927","619531dcf66c91622fa1b861","619595d88483eed60ad86646","null","","null","","","","","main_T1_ITI","","","","",""
"","","","","","visual-search-circle","109","499613","0.0-14.0-0.0-1.47","60521e44653a99113e8d7927","619531dcf66c91622fa1b861","619595d88483eed60ad86646","1183.9000000357628","","s","true","[[237,593],[559,450],[522,99],[177,25],[1,331]]","false","5","main_T2_Trial","s","img/Fire_Up_Target.gif","[""img/Fire_Down_Distractor.gif"",""img/Fire_Down_Distractor.gif"",""img/Fire_Down_Distractor.gif"",""img/Fire_Down_Distractor.gif"",""img/Fire_Down_Distractor.gif"",""img/Fire_Down_Distractor.gif"",""img/Fire_Down_Distractor.gif"",""img/Fire_Down_Distractor.gif"",""img/Fire_Down_Distractor.gif"",""img/Fire_Down_Distractor.gif"",""img/Fire_Down_Distractor.gif"",""img/Fire_Down_Distractor.gif""]","5","targetUp_distractorsDown"
"","","","","","html-keyboard-response","110","499615","0.0-14.0-0.0-0.48","60521e44653a99113e8d7927","619531dcf66c91622fa1b861","619595d88483eed60ad86646","null","","null","","","","","main_T1_ITI","","","","",""
"","","","","","visual-search-circle","111","501354","0.0-14.0-0.0-1.48","60521e44653a99113e8d7927","619531dcf66c91622fa1b861","619595d88483eed60ad86646","725.3999999761581","","s","true","[[599,315],[499,75],[248,4],[36,155],[23,415],[218,588],[474,544]]","false","7","main_T2_Trial","s","img/Fire_Down_Target.gif","[""img/Fire_Up_Distractor.gif"",""img/Fire_Up_Distractor.gif"",""img/Fire_Up_Distractor.gif"",""img/Fire_Up_Distractor.gif"",""img/Fire_Up_Distractor.gif"",""img/Fire_Up_Distractor.gif"",""img/Fire_Up_Distractor.gif"",""img/Fire_Up_Distractor.gif"",""img/Fire_Up_Distractor.gif"",""img/Fire_Up_Distractor.gif"",""img/Fire_Up_Distractor.gif"",""img/Fire_Up_Distractor.gif""]","7","targetDown_distractorsUp"
"","","","","","html-keyboard-response","112","501355","0.0-14.0-0.0-0.49","60521e44653a99113e8d7927","619531dcf66c91622fa1b861","619595d88483eed60ad86646","null","","null","","","","","main_T1_ITI","","","","",""
"","","","","","visual-search-circle","113","503945","0.0-14.0-0.0-1.49","60521e44653a99113e8d7927","619531dcf66c91622fa1b861","619595d88483eed60ad86646","1580.0999999642372","","s","false","[[599,289],[440,35],[141,45],[0,310],[159,564],[458,554]]","true","6","main_T2_Trial","d","img/Fire_Up_Target.gif","[""img/Fire_Down_Distractor.gif"",""img/Fire_Down_Distractor.gif"",""img/Fire_Down_Distractor.gif"",""img/Fire_Down_Distractor.gif"",""img/Fire_Down_Distractor.gif"",""img/Fire_Down_Distractor.gif"",""img/Fire_Down_Distractor.gif"",""img/Fire_Down_Distractor.gif"",""img/Fire_Down_Distractor.gif"",""img/Fire_Down_Distractor.gif"",""img/Fire_Down_Distractor.gif"",""img/Fire_Down_Distractor.gif""]","6","targetUp_distractorsDown"
"","","","","","html-keyboard-response","114","503946","0.0-14.0-0.0-0.50","60521e44653a99113e8d7927","619531dcf66c91622fa1b861","619595d88483eed60ad86646","null","","null","","","","","main_T1_ITI","","","","",""
"","","","","","visual-search-circle","115","506015","0.0-14.0-0.0-1.50","60521e44653a99113e8d7927","619531dcf66c91622fa1b861","619595d88483eed60ad86646","1054.3999999761581","","s","false","[[149,559],[377,589],[559,450],[589,222],[449,40],[222,10],[40,150],[10,377]]","true","8","main_T2_Trial","d","img/Fire_Up_Target.gif","[""img/Fire_Down_Distractor.gif"",""img/Fire_Down_Distractor.gif"",""img/Fire_Down_Distractor.gif"",""img/Fire_Down_Distractor.gif"",""img/Fire_Down_Distractor.gif"",""img/Fire_Down_Distractor.gif"",""img/Fire_Down_Distractor.gif"",""img/Fire_Down_Distractor.gif"",""img/Fire_Down_Distractor.gif"",""img/Fire_Down_Distractor.gif"",""img/Fire_Down_Distractor.gif"",""img/Fire_Down_Distractor.gif""]","8","targetUp_distractorsDown"
"","","","","","html-keyboard-response","116","506018","0.0-14.0-0.0-0.51","60521e44653a99113e8d7927","619531dcf66c91622fa1b861","619595d88483eed60ad86646","null","","null","","","","","main_T1_ITI","","","","",""
"","","","","","visual-search-circle","117","507955","0.0-14.0-0.0-1.51","60521e44653a99113e8d7927","619531dcf66c91622fa1b861","619595d88483eed60ad86646","933.8999999761581","","d","true","[[23,417],[219,588],[475,543],[599,314],[497,74],[247,4],[36,157]]","true","7","main_T2_Trial","d","img/Fire_Down_Target.gif","[""img/Fire_Up_Distractor.gif"",""img/Fire_Up_Distractor.gif"",""img/Fire_Up_Distractor.gif"",""img/Fire_Up_Distractor.gif"",""img/Fire_Up_Distractor.gif"",""img/Fire_Up_Distractor.gif"",""img/Fire_Up_Distractor.gif"",""img/Fire_Up_Distractor.gif"",""img/Fire_Up_Distractor.gif"",""img/Fire_Up_Distractor.gif"",""img/Fire_Up_Distractor.gif"",""img/Fire_Up_Distractor.gif""]","7","targetDown_distractorsUp"
"","","","","","html-keyboard-response","118","507957","0.0-14.0-0.0-0.52","60521e44653a99113e8d7927","619531dcf66c91622fa1b861","619595d88483eed60ad86646","null","","null","","","","","main_T1_ITI","","","","",""
"","","","","","visual-search-circle","119","509787","0.0-14.0-0.0-1.52","60521e44653a99113e8d7927","619531dcf66c91622fa1b861","619595d88483eed60ad86646","820.1999999880791","","d","true","[[599,289],[382,11],[51,132],[63,484],[402,581]]","true","5","main_T2_Trial","d","img/Fire_Down_Target.gif","[""img/Fire_Up_Distractor.gif"",""img/Fire_Up_Distractor.gif"",""img/Fire_Up_Distractor.gif"",""img/Fire_Up_Distractor.gif"",""img/Fire_Up_Distractor.gif"",""img/Fire_Up_Distractor.gif"",""img/Fire_Up_Distractor.gif"",""img/Fire_Up_Distractor.gif"",""img/Fire_Up_Distractor.gif"",""img/Fire_Up_Distractor.gif"",""img/Fire_Up_Distractor.gif"",""img/Fire_Up_Distractor.gif""]","5","targetDown_distractorsUp"
"","","","","","html-keyboard-response","120","509789","0.0-14.0-0.0-0.53","60521e44653a99113e8d7927","619531dcf66c91622fa1b861","619595d88483eed60ad86646","null","","null","","","","","main_T1_ITI","","","","",""
"","","","","","visual-search-circle","121","511814","0.0-14.0-0.0-1.53","60521e44653a99113e8d7927","619531dcf66c91622fa1b861","619595d88483eed60ad86646","1010.6000000238419","","s","true","[[598,331],[476,57],[177,25],[1,268],[123,542],[422,574]]","false","6","main_T2_Trial","s","img/Fire_Down_Target.gif","[""img/Fire_Up_Distractor.gif"",""img/Fire_Up_Distractor.gif"",""img/Fire_Up_Distractor.gif"",""img/Fire_Up_Distractor.gif"",""img/Fire_Up_Distractor.gif"",""img/Fire_Up_Distractor.gif"",""img/Fire_Up_Distractor.gif"",""img/Fire_Up_Distractor.gif"",""img/Fire_Up_Distractor.gif"",""img/Fire_Up_Distractor.gif"",""img/Fire_Up_Distractor.gif"",""img/Fire_Up_Distractor.gif""]","6","targetDown_distractorsUp"
"","","","","","html-keyboard-response","122","511816","0.0-14.0-0.0-0.54","60521e44653a99113e8d7927","619531dcf66c91622fa1b861","619595d88483eed60ad86646","null","","null","","","","","main_T1_ITI","","","","",""
"","","","","","visual-search-circle","123","514429","0.0-14.0-0.0-1.54","60521e44653a99113e8d7927","619531dcf66c91622fa1b861","619595d88483eed60ad86646","1601.3999999761581","","d","true","[[42,454],[260,597],[507,516],[598,272],[464,49],[206,14],[18,195]]","true","7","main_T2_Trial","d","img/Fire_Down_Target.gif","[""img/Fire_Up_Distractor.gif"",""img/Fire_Up_Distractor.gif"",""img/Fire_Up_Distractor.gif"",""img/Fire_Up_Distractor.gif"",""img/Fire_Up_Distractor.gif"",""img/Fire_Up_Distractor.gif"",""img/Fire_Up_Distractor.gif"",""img/Fire_Up_Distractor.gif"",""img/Fire_Up_Distractor.gif"",""img/Fire_Up_Distractor.gif"",""img/Fire_Up_Distractor.gif"",""img/Fire_Up_Distractor.gif""]","7","targetDown_distractorsUp"
"","","","","","html-keyboard-response","124","514431","0.0-14.0-0.0-0.55","60521e44653a99113e8d7927","619531dcf66c91622fa1b861","619595d88483eed60ad86646","null","","null","","","","","main_T1_ITI","","","","",""
"","","","","","visual-search-circle","125","516429","0.0-14.0-0.0-1.55","60521e44653a99113e8d7927","619531dcf66c91622fa1b861","619595d88483eed60ad86646","986.3000000119209","","d","true","[[279,599],[548,467],[569,168],[320,0],[51,132],[30,431]]","true","6","main_T2_Trial","d","img/Fire_Up_Target.gif","[""img/Fire_Down_Distractor.gif"",""img/Fire_Down_Distractor.gif"",""img/Fire_Down_Distractor.gif"",""img/Fire_Down_Distractor.gif"",""img/Fire_Down_Distractor.gif"",""img/Fire_Down_Distractor.gif"",""img/Fire_Down_Distractor.gif"",""img/Fire_Down_Distractor.gif"",""img/Fire_Down_Distractor.gif"",""img/Fire_Down_Distractor.gif"",""img/Fire_Down_Distractor.gif"",""img/Fire_Down_Distractor.gif""]","6","targetUp_distractorsDown"
"","","","","","html-keyboard-response","126","516431","0.0-14.0-0.0-0.56","60521e44653a99113e8d7927","619531dcf66c91622fa1b861","619595d88483eed60ad86646","null","","null","","","","","main_T1_ITI","","","","",""
"","","","","","visual-search-circle","127","519819","0.0-14.0-0.0-1.56","60521e44653a99113e8d7927","619531dcf66c91622fa1b861","619595d88483eed60ad86646","2377.599999964237","","s","true","[[192,19],[13,209],[50,467],[275,598],[518,505],[596,257],[451,41]]","false","7","main_T2_Trial","s","img/Fire_Down_Target.gif","[""img/Fire_Up_Distractor.gif"",""img/Fire_Up_Distractor.gif"",""img/Fire_Up_Distractor.gif"",""img/Fire_Up_Distractor.gif"",""img/Fire_Up_Distractor.gif"",""img/Fire_Up_Distractor.gif"",""img/Fire_Up_Distractor.gif"",""img/Fire_Up_Distractor.gif"",""img/Fire_Up_Distractor.gif"",""img/Fire_Up_Distractor.gif"",""img/Fire_Up_Distractor.gif"",""img/Fire_Up_Distractor.gif""]","7","targetDown_distractorsUp"
"","","","","","html-keyboard-response","128","519821","0.0-14.0-0.0-0.57","60521e44653a99113e8d7927","619531dcf66c91622fa1b861","619595d88483eed60ad86646","null","","null","","","","","main_T1_ITI","","","","",""
"","","","","","visual-search-circle","129","521912","0.0-14.0-0.0-1.57","60521e44653a99113e8d7927","619531dcf66c91622fa1b861","619595d88483eed60ad86646","1079.699999988079","","s","true","[[45,141],[35,440],[289,599],[554,458],[564,159],[310,0]]","false","6","main_T2_Trial","s","img/Fire_Up_Target.gif","[""img/Fire_Down_Distractor.gif"",""img/Fire_Down_Distractor.gif"",""img/Fire_Down_Distractor.gif"",""img/Fire_Down_Distractor.gif"",""img/Fire_Down_Distractor.gif"",""img/Fire_Down_Distractor.gif"",""img/Fire_Down_Distractor.gif"",""img/Fire_Down_Distractor.gif"",""img/Fire_Down_Distractor.gif"",""img/Fire_Down_Distractor.gif"",""img/Fire_Down_Distractor.gif"",""img/Fire_Down_Distractor.gif""]","6","targetUp_distractorsDown"
"","","","","","html-keyboard-response","130","521915","0.0-14.0-0.0-0.58","60521e44653a99113e8d7927","619531dcf66c91622fa1b861","619595d88483eed60ad86646","null","","null","","","","","main_T1_ITI","","","","",""
"","","","","","visual-search-circle","131","524187","0.0-14.0-0.0-1.58","60521e44653a99113e8d7927","619531dcf66c91622fa1b861","619595d88483eed60ad86646","1260.5999999642372","","d","true","[[263,597],[539,480],[576,182],[336,2],[60,119],[23,417]]","true","6","main_T2_Trial","d","img/Fire_Up_Target.gif","[""img/Fire_Down_Distractor.gif"",""img/Fire_Down_Distractor.gif"",""img/Fire_Down_Distractor.gif"",""img/Fire_Down_Distractor.gif"",""img/Fire_Down_Distractor.gif"",""img/Fire_Down_Distractor.gif"",""img/Fire_Down_Distractor.gif"",""img/Fire_Down_Distractor.gif"",""img/Fire_Down_Distractor.gif"",""img/Fire_Down_Distractor.gif"",""img/Fire_Down_Distractor.gif"",""img/Fire_Down_Distractor.gif""]","6","targetUp_distractorsDown"
"","","","","","html-keyboard-response","132","525257","0.0-14.0-0.0-0.59","60521e44653a99113e8d7927","619531dcf66c91622fa1b861","619595d88483eed60ad86646","1070.0999999642372","Wow! You've completed 60 out of 160 trials! </p> <p>  </p><p> Take a quick break, then press any key when you're ready to continue.","d","","","","","main_T1_ITI","","","","",""
"","","","","","visual-search-circle","133","527345","0.0-14.0-0.0-1.59","60521e44653a99113e8d7927","619531dcf66c91622fa1b861","619595d88483eed60ad86646","1075.3999999761581","","s","true","[[440,35],[180,24],[10,221],[58,477],[288,599],[526,496],[594,244]]","false","7","main_T2_Trial","s","img/Fire_Down_Target.gif","[""img/Fire_Up_Distractor.gif"",""img/Fire_Up_Distractor.gif"",""img/Fire_Up_Distractor.gif"",""img/Fire_Up_Distractor.gif"",""img/Fire_Up_Distractor.gif"",""img/Fire_Up_Distractor.gif"",""img/Fire_Up_Distractor.gif"",""img/Fire_Up_Distractor.gif"",""img/Fire_Up_Distractor.gif"",""img/Fire_Up_Distractor.gif"",""img/Fire_Up_Distractor.gif"",""img/Fire_Up_Distractor.gif""]","7","targetDown_distractorsUp"
"","","","","","html-keyboard-response","134","527348","0.0-14.0-0.0-0.60","60521e44653a99113e8d7927","619531dcf66c91622fa1b861","619595d88483eed60ad86646","null","","null","","","","","main_T1_ITI","","","","",""
"","","","","","visual-search-circle","135","529754","0.0-14.0-0.0-1.60","60521e44653a99113e8d7927","619531dcf66c91622fa1b861","619595d88483eed60ad86646","1391.5","","d","true","[[2,341],[341,597],[597,258],[258,2]]","true","4","main_T2_Trial","d","img/Fire_Down_Target.gif","[""img/Fire_Up_Distractor.gif"",""img/Fire_Up_Distractor.gif"",""img/Fire_Up_Distractor.gif"",""img/Fire_Up_Distractor.gif"",""img/Fire_Up_Distractor.gif"",""img/Fire_Up_Distractor.gif"",""img/Fire_Up_Distractor.gif"",""img/Fire_Up_Distractor.gif"",""img/Fire_Up_Distractor.gif"",""img/Fire_Up_Distractor.gif"",""img/Fire_Up_Distractor.gif"",""img/Fire_Up_Distractor.gif""]","4","targetDown_distractorsUp"
"","","","","","html-keyboard-response","136","529756","0.0-14.0-0.0-0.61","60521e44653a99113e8d7927","619531dcf66c91622fa1b861","619595d88483eed60ad86646","null","","null","","","","","main_T1_ITI","","","","",""
"","","","","","visual-search-circle","137","531621","0.0-14.0-0.0-1.61","60521e44653a99113e8d7927","619531dcf66c91622fa1b861","619595d88483eed60ad86646","852.1000000238419","","s","true","[[467,548],[599,323],[505,81],[256,3],[40,148],[20,408],[210,586]]","false","7","main_T2_Trial","s","img/Fire_Down_Target.gif","[""img/Fire_Up_Distractor.gif"",""img/Fire_Up_Distractor.gif"",""img/Fire_Up_Distractor.gif"",""img/Fire_Up_Distractor.gif"",""img/Fire_Up_Distractor.gif"",""img/Fire_Up_Distractor.gif"",""img/Fire_Up_Distractor.gif"",""img/Fire_Up_Distractor.gif"",""img/Fire_Up_Distractor.gif"",""img/Fire_Up_Distractor.gif"",""img/Fire_Up_Distractor.gif"",""img/Fire_Up_Distractor.gif""]","7","targetDown_distractorsUp"
"","","","","","html-keyboard-response","138","531623","0.0-14.0-0.0-0.62","60521e44653a99113e8d7927","619531dcf66c91622fa1b861","619595d88483eed60ad86646","null","","null","","","","","main_T1_ITI","","","","",""
"","","","","","visual-search-circle","139","533379","0.0-14.0-0.0-1.62","60521e44653a99113e8d7927","619531dcf66c91622fa1b861","619595d88483eed60ad86646","739.8999999761581","","d","true","[[600,300],[392,14],[57,123],[57,476],[392,585]]","true","5","main_T2_Trial","d","img/Fire_Down_Target.gif","[""img/Fire_Up_Distractor.gif"",""img/Fire_Up_Distractor.gif"",""img/Fire_Up_Distractor.gif"",""img/Fire_Up_Distractor.gif"",""img/Fire_Up_Distractor.gif"",""img/Fire_Up_Distractor.gif"",""img/Fire_Up_Distractor.gif"",""img/Fire_Up_Distractor.gif"",""img/Fire_Up_Distractor.gif"",""img/Fire_Up_Distractor.gif"",""img/Fire_Up_Distractor.gif"",""img/Fire_Up_Distractor.gif""]","5","targetDown_distractorsUp"
"","","","","","html-keyboard-response","140","533382","0.0-14.0-0.0-0.63","60521e44653a99113e8d7927","619531dcf66c91622fa1b861","619595d88483eed60ad86646","null","","null","","","","","main_T1_ITI","","","","",""
"","","","","","visual-search-circle","141","535842","0.0-14.0-0.0-1.63","60521e44653a99113e8d7927","619531dcf66c91622fa1b861","619595d88483eed60ad86646","1449","","d","false","[[458,45],[107,70],[21,412],[320,599],[591,372]]","false","5","main_T2_Trial","s","img/Fire_Up_Target.gif","[""img/Fire_Down_Distractor.gif"",""img/Fire_Down_Distractor.gif"",""img/Fire_Down_Distractor.gif"",""img/Fire_Down_Distractor.gif"",""img/Fire_Down_Distractor.gif"",""img/Fire_Down_Distractor.gif"",""img/Fire_Down_Distractor.gif"",""img/Fire_Down_Distractor.gif"",""img/Fire_Down_Distractor.gif"",""img/Fire_Down_Distractor.gif"",""img/Fire_Down_Distractor.gif"",""img/Fire_Down_Distractor.gif""]","5","targetUp_distractorsDown"
"","","","","","html-keyboard-response","142","535844","0.0-14.0-0.0-0.64","60521e44653a99113e8d7927","619531dcf66c91622fa1b861","619595d88483eed60ad86646","null","","null","","","","","main_T1_ITI","","","","",""
"","","","","","visual-search-circle","143","538300","0.0-14.0-0.0-1.64","60521e44653a99113e8d7927","619531dcf66c91622fa1b861","619595d88483eed60ad86646","1454","","s","false","[[103,73],[73,496],[496,526],[526,103]]","true","4","main_T2_Trial","d","img/Fire_Up_Target.gif","[""img/Fire_Down_Distractor.gif"",""img/Fire_Down_Distractor.gif"",""img/Fire_Down_Distractor.gif"",""img/Fire_Down_Distractor.gif"",""img/Fire_Down_Distractor.gif"",""img/Fire_Down_Distractor.gif"",""img/Fire_Down_Distractor.gif"",""img/Fire_Down_Distractor.gif"",""img/Fire_Down_Distractor.gif"",""img/Fire_Down_Distractor.gif"",""img/Fire_Down_Distractor.gif"",""img/Fire_Down_Distractor.gif""]","4","targetUp_distractorsDown"
"","","","","","html-keyboard-response","144","538307","0.0-14.0-0.0-0.65","60521e44653a99113e8d7927","619531dcf66c91622fa1b861","619595d88483eed60ad86646","null","","null","","","","","main_T1_ITI","","","","",""
"","","","","","visual-search-circle","145","540114","0.0-14.0-0.0-1.65","60521e44653a99113e8d7927","619531dcf66c91622fa1b861","619595d88483eed60ad86646","803.5999999642372","","s","true","[[73,103],[42,454],[367,592],[598,326],[417,23]]","false","5","main_T2_Trial","s","img/Fire_Down_Target.gif","[""img/Fire_Up_Distractor.gif"",""img/Fire_Up_Distractor.gif"",""img/Fire_Up_Distractor.gif"",""img/Fire_Up_Distractor.gif"",""img/Fire_Up_Distractor.gif"",""img/Fire_Up_Distractor.gif"",""img/Fire_Up_Distractor.gif"",""img/Fire_Up_Distractor.gif"",""img/Fire_Up_Distractor.gif"",""img/Fire_Up_Distractor.gif"",""img/Fire_Up_Distractor.gif"",""img/Fire_Up_Distractor.gif""]","5","targetDown_distractorsUp"
"","","","","","html-keyboard-response","146","540116","0.0-14.0-0.0-0.66","60521e44653a99113e8d7927","619531dcf66c91622fa1b861","619595d88483eed60ad86646","null","","null","","","","","main_T1_ITI","","","","",""
"","","","","","visual-search-circle","147","543542","0.0-14.0-0.0-1.66","60521e44653a99113e8d7927","619531dcf66c91622fa1b861","619595d88483eed60ad86646","2412.699999988079","","s","true","[[99,522],[522,500],[500,77],[77,99]]","false","4","main_T2_Trial","s","img/Fire_Down_Target.gif","[""img/Fire_Up_Distractor.gif"",""img/Fire_Up_Distractor.gif"",""img/Fire_Up_Distractor.gif"",""img/Fire_Up_Distractor.gif"",""img/Fire_Up_Distractor.gif"",""img/Fire_Up_Distractor.gif"",""img/Fire_Up_Distractor.gif"",""img/Fire_Up_Distractor.gif"",""img/Fire_Up_Distractor.gif"",""img/Fire_Up_Distractor.gif"",""img/Fire_Up_Distractor.gif"",""img/Fire_Up_Distractor.gif""]","4","targetDown_distractorsUp"
"","","","","","html-keyboard-response","148","543544","0.0-14.0-0.0-0.67","60521e44653a99113e8d7927","619531dcf66c91622fa1b861","619595d88483eed60ad86646","null","","null","","","","","main_T1_ITI","","","","",""
"","","","","","visual-search-circle","149","545635","0.0-14.0-0.0-1.67","60521e44653a99113e8d7927","619531dcf66c91622fa1b861","619595d88483eed60ad86646","1084.3999999761581","","s","false","[[387,586],[578,410],[560,150],[345,3],[96,79],[0,321],[130,547]]","true","7","main_T2_Trial","d","img/Fire_Down_Target.gif","[""img/Fire_Up_Distractor.gif"",""img/Fire_Up_Distractor.gif"",""img/Fire_Up_Distractor.gif"",""img/Fire_Up_Distractor.gif"",""img/Fire_Up_Distractor.gif"",""img/Fire_Up_Distractor.gif"",""img/Fire_Up_Distractor.gif"",""img/Fire_Up_Distractor.gif"",""img/Fire_Up_Distractor.gif"",""img/Fire_Up_Distractor.gif"",""img/Fire_Up_Distractor.gif"",""img/Fire_Up_Distractor.gif""]","7","targetDown_distractorsUp"
"","","","","","html-keyboard-response","150","545637","0.0-14.0-0.0-0.68","60521e44653a99113e8d7927","619531dcf66c91622fa1b861","619595d88483eed60ad86646","null","","null","","","","","main_T1_ITI","","","","",""
"","","","","","visual-search-circle","151","547598","0.0-14.0-0.0-1.68","60521e44653a99113e8d7927","619531dcf66c91622fa1b861","619595d88483eed60ad86646","952.4000000357628","","s","true","[[173,28],[8,229],[63,484],[296,599],[532,489],[593,236],[433,31]]","false","7","main_T2_Trial","s","img/Fire_Down_Target.gif","[""img/Fire_Up_Distractor.gif"",""img/Fire_Up_Distractor.gif"",""img/Fire_Up_Distractor.gif"",""img/Fire_Up_Distractor.gif"",""img/Fire_Up_Distractor.gif"",""img/Fire_Up_Distractor.gif"",""img/Fire_Up_Distractor.gif"",""img/Fire_Up_Distractor.gif"",""img/Fire_Up_Distractor.gif"",""img/Fire_Up_Distractor.gif"",""img/Fire_Up_Distractor.gif"",""img/Fire_Up_Distractor.gif""]","7","targetDown_distractorsUp"
"","","","","","html-keyboard-response","152","547601","0.0-14.0-0.0-0.69","60521e44653a99113e8d7927","619531dcf66c91622fa1b861","619595d88483eed60ad86646","null","","null","","","","","main_T1_ITI","","","","",""
"","","","","","visual-search-circle","153","549447","0.0-14.0-0.0-1.69","60521e44653a99113e8d7927","619531dcf66c91622fa1b861","619595d88483eed60ad86646","840","","d","true","[[589,377],[377,10],[10,222],[222,589]]","true","4","main_T2_Trial","d","img/Fire_Down_Target.gif","[""img/Fire_Up_Distractor.gif"",""img/Fire_Up_Distractor.gif"",""img/Fire_Up_Distractor.gif"",""img/Fire_Up_Distractor.gif"",""img/Fire_Up_Distractor.gif"",""img/Fire_Up_Distractor.gif"",""img/Fire_Up_Distractor.gif"",""img/Fire_Up_Distractor.gif"",""img/Fire_Up_Distractor.gif"",""img/Fire_Up_Distractor.gif"",""img/Fire_Up_Distractor.gif"",""img/Fire_Up_Distractor.gif""]","4","targetDown_distractorsUp"
"","","","","","html-keyboard-response","154","549450","0.0-14.0-0.0-0.70","60521e44653a99113e8d7927","619531dcf66c91622fa1b861","619595d88483eed60ad86646","null","","null","","","","","main_T1_ITI","","","","",""
"","","","","","visual-search-circle","155","551504","0.0-14.0-0.0-1.70","60521e44653a99113e8d7927","619531dcf66c91622fa1b861","619595d88483eed60ad86646","1046.8999999761581","","d","true","[[136,551],[362,593],[551,463],[593,237],[463,48],[237,6],[48,136],[6,362]]","true","8","main_T2_Trial","d","img/Fire_Up_Target.gif","[""img/Fire_Down_Distractor.gif"",""img/Fire_Down_Distractor.gif"",""img/Fire_Down_Distractor.gif"",""img/Fire_Down_Distractor.gif"",""img/Fire_Down_Distractor.gif"",""img/Fire_Down_Distractor.gif"",""img/Fire_Down_Distractor.gif"",""img/Fire_Down_Distractor.gif"",""img/Fire_Down_Distractor.gif"",""img/Fire_Down_Distractor.gif"",""img/Fire_Down_Distractor.gif"",""img/Fire_Down_Distractor.gif""]","8","targetUp_distractorsDown"
"","","","","","html-keyboard-response","156","551506","0.0-14.0-0.0-0.71","60521e44653a99113e8d7927","619531dcf66c91622fa1b861","619595d88483eed60ad86646","null","","null","","","","","main_T1_ITI","","","","",""
"","","","","","visual-search-circle","157","553488","0.0-14.0-0.0-1.71","60521e44653a99113e8d7927","619531dcf66c91622fa1b861","619595d88483eed60ad86646","967.8999999761581","","d","true","[[2,336],[242,594],[562,445],[519,95],[173,28]]","true","5","main_T2_Trial","d","img/Fire_Up_Target.gif","[""img/Fire_Down_Distractor.gif"",""img/Fire_Down_Distractor.gif"",""img/Fire_Down_Distractor.gif"",""img/Fire_Down_Distractor.gif"",""img/Fire_Down_Distractor.gif"",""img/Fire_Down_Distractor.gif"",""img/Fire_Down_Distractor.gif"",""img/Fire_Down_Distractor.gif"",""img/Fire_Down_Distractor.gif"",""img/Fire_Down_Distractor.gif"",""img/Fire_Down_Distractor.gif"",""img/Fire_Down_Distractor.gif""]","5","targetUp_distractorsDown"
"","","","","","html-keyboard-response","158","553490","0.0-14.0-0.0-0.72","60521e44653a99113e8d7927","619531dcf66c91622fa1b861","619595d88483eed60ad86646","null","","null","","","","","main_T1_ITI","","","","",""
"","","","","","visual-search-circle","159","555409","0.0-14.0-0.0-1.72","60521e44653a99113e8d7927","619531dcf66c91622fa1b861","619595d88483eed60ad86646","903.6999999880791","","s","true","[[596,253],[448,39],[188,21],[12,213],[53,470],[279,599],[521,502]]","false","7","main_T2_Trial","s","img/Fire_Up_Target.gif","[""img/Fire_Down_Distractor.gif"",""img/Fire_Down_Distractor.gif"",""img/Fire_Down_Distractor.gif"",""img/Fire_Down_Distractor.gif"",""img/Fire_Down_Distractor.gif"",""img/Fire_Down_Distractor.gif"",""img/Fire_Down_Distractor.gif"",""img/Fire_Down_Distractor.gif"",""img/Fire_Down_Distractor.gif"",""img/Fire_Down_Distractor.gif"",""img/Fire_Down_Distractor.gif"",""img/Fire_Down_Distractor.gif""]","7","targetUp_distractorsDown"
"","","","","","html-keyboard-response","160","555411","0.0-14.0-0.0-0.73","60521e44653a99113e8d7927","619531dcf66c91622fa1b861","619595d88483eed60ad86646","null","","null","","","","","main_T1_ITI","","","","",""
"","","","","","visual-search-circle","161","558052","0.0-14.0-0.0-1.73","60521e44653a99113e8d7927","619531dcf66c91622fa1b861","619595d88483eed60ad86646","1626.2000000476837","","d","false","[[599,310],[495,72],[243,5],[34,160],[25,420],[223,589],[478,540]]","false","7","main_T2_Trial","s","img/Fire_Down_Target.gif","[""img/Fire_Up_Distractor.gif"",""img/Fire_Up_Distractor.gif"",""img/Fire_Up_Distractor.gif"",""img/Fire_Up_Distractor.gif"",""img/Fire_Up_Distractor.gif"",""img/Fire_Up_Distractor.gif"",""img/Fire_Up_Distractor.gif"",""img/Fire_Up_Distractor.gif"",""img/Fire_Up_Distractor.gif"",""img/Fire_Up_Distractor.gif"",""img/Fire_Up_Distractor.gif"",""img/Fire_Up_Distractor.gif""]","7","targetDown_distractorsUp"
"","","","","","html-keyboard-response","162","558054","0.0-14.0-0.0-0.74","60521e44653a99113e8d7927","619531dcf66c91622fa1b861","619595d88483eed60ad86646","null","","null","","","","","main_T1_ITI","","","","",""
"","","","","","visual-search-circle","163","560134","0.0-14.0-0.0-1.74","60521e44653a99113e8d7927","619531dcf66c91622fa1b861","619595d88483eed60ad86646","1064.7999999523163","","d","false","[[578,412],[576,182],[412,21],[182,23],[21,187],[23,417],[187,578],[417,576]]","false","8","main_T2_Trial","s","img/Fire_Down_Target.gif","[""img/Fire_Up_Distractor.gif"",""img/Fire_Up_Distractor.gif"",""img/Fire_Up_Distractor.gif"",""img/Fire_Up_Distractor.gif"",""img/Fire_Up_Distractor.gif"",""img/Fire_Up_Distractor.gif"",""img/Fire_Up_Distractor.gif"",""img/Fire_Up_Distractor.gif"",""img/Fire_Up_Distractor.gif"",""img/Fire_Up_Distractor.gif"",""img/Fire_Up_Distractor.gif"",""img/Fire_Up_Distractor.gif""]","8","targetDown_distractorsUp"
"","","","","","html-keyboard-response","164","560136","0.0-14.0-0.0-0.75","60521e44653a99113e8d7927","619531dcf66c91622fa1b861","619595d88483eed60ad86646","null","","null","","","","","main_T1_ITI","","","","",""
"","","","","","visual-search-circle","165","562113","0.0-14.0-0.0-1.75","60521e44653a99113e8d7927","619531dcf66c91622fa1b861","619595d88483eed60ad86646","967.2000000476837","","d","true","[[0,305],[154,562],[454,557],[599,294],[445,37],[145,42]]","true","6","main_T2_Trial","d","img/Fire_Down_Target.gif","[""img/Fire_Up_Distractor.gif"",""img/Fire_Up_Distractor.gif"",""img/Fire_Up_Distractor.gif"",""img/Fire_Up_Distractor.gif"",""img/Fire_Up_Distractor.gif"",""img/Fire_Up_Distractor.gif"",""img/Fire_Up_Distractor.gif"",""img/Fire_Up_Distractor.gif"",""img/Fire_Up_Distractor.gif"",""img/Fire_Up_Distractor.gif"",""img/Fire_Up_Distractor.gif"",""img/Fire_Up_Distractor.gif""]","6","targetDown_distractorsUp"
"","","","","","html-keyboard-response","166","562115","0.0-14.0-0.0-0.76","60521e44653a99113e8d7927","619531dcf66c91622fa1b861","619595d88483eed60ad86646","null","","null","","","","","main_T1_ITI","","","","",""
"","","","","","visual-search-circle","167","564209","0.0-14.0-0.0-1.76","60521e44653a99113e8d7927","619531dcf66c91622fa1b861","619595d88483eed60ad86646","1076.699999988079","","d","false","[[4,352],[127,545],[352,595],[545,472],[595,247],[472,54],[247,4],[54,127]]","false","8","main_T2_Trial","s","img/Fire_Up_Target.gif","[""img/Fire_Down_Distractor.gif"",""img/Fire_Down_Distractor.gif"",""img/Fire_Down_Distractor.gif"",""img/Fire_Down_Distractor.gif"",""img/Fire_Down_Distractor.gif"",""img/Fire_Down_Distractor.gif"",""img/Fire_Down_Distractor.gif"",""img/Fire_Down_Distractor.gif"",""img/Fire_Down_Distractor.gif"",""img/Fire_Down_Distractor.gif"",""img/Fire_Down_Distractor.gif"",""img/Fire_Down_Distractor.gif""]","8","targetUp_distractorsDown"
"","","","","","html-keyboard-response","168","564211","0.0-14.0-0.0-0.77","60521e44653a99113e8d7927","619531dcf66c91622fa1b861","619595d88483eed60ad86646","null","","null","","","","","main_T1_ITI","","","","",""
"","","","","","visual-search-circle","169","566493","0.0-14.0-0.0-1.77","60521e44653a99113e8d7927","619531dcf66c91622fa1b861","619595d88483eed60ad86646","1268.800000011921","","d","true","[[3,346],[151,560],[411,578],[587,386],[546,129],[320,0],[78,97]]","true","7","main_T2_Trial","d","img/Fire_Up_Target.gif","[""img/Fire_Down_Distractor.gif"",""img/Fire_Down_Distractor.gif"",""img/Fire_Down_Distractor.gif"",""img/Fire_Down_Distractor.gif"",""img/Fire_Down_Distractor.gif"",""img/Fire_Down_Distractor.gif"",""img/Fire_Down_Distractor.gif"",""img/Fire_Down_Distractor.gif"",""img/Fire_Down_Distractor.gif"",""img/Fire_Down_Distractor.gif"",""img/Fire_Down_Distractor.gif"",""img/Fire_Down_Distractor.gif""]","7","targetUp_distractorsDown"
"","","","","","html-keyboard-response","170","566495","0.0-14.0-0.0-0.78","60521e44653a99113e8d7927","619531dcf66c91622fa1b861","619595d88483eed60ad86646","null","","null","","","","","main_T1_ITI","","","","",""
"","","","","","visual-search-circle","171","570391","0.0-14.0-0.0-1.78","60521e44653a99113e8d7927","619531dcf66c91622fa1b861","619595d88483eed60ad86646","2886.100000023842","","s","true","[[232,7],[29,170],[30,430],[233,592],[487,534],[599,299],[486,64]]","false","7","main_T2_Trial","s","img/Fire_Up_Target.gif","[""img/Fire_Down_Distractor.gif"",""img/Fire_Down_Distractor.gif"",""img/Fire_Down_Distractor.gif"",""img/Fire_Down_Distractor.gif"",""img/Fire_Down_Distractor.gif"",""img/Fire_Down_Distractor.gif"",""img/Fire_Down_Distractor.gif"",""img/Fire_Down_Distractor.gif"",""img/Fire_Down_Distractor.gif"",""img/Fire_Down_Distractor.gif"",""img/Fire_Down_Distractor.gif"",""img/Fire_Down_Distractor.gif""]","7","targetUp_distractorsDown"
"","","","","","html-keyboard-response","172","616263","0.0-14.0-0.0-0.79","60521e44653a99113e8d7927","619531dcf66c91622fa1b861","619595d88483eed60ad86646","45871.200000047684","Wow! You've completed 80 out of 160 trials! </p> <p>  </p><p> Take a quick break, then press any key when you're ready to continue."," ","","","","","main_T1_ITI","","","","",""
"","","","","","visual-search-circle","173","618217","0.0-14.0-0.0-1.79","60521e44653a99113e8d7927","619531dcf66c91622fa1b861","619595d88483eed60ad86646","945.0999999642372","","d","true","[[268,598],[513,510],[597,264],[457,44],[198,17],[16,203],[47,461]]","true","7","main_T2_Trial","d","img/Fire_Down_Target.gif","[""img/Fire_Up_Distractor.gif"",""img/Fire_Up_Distractor.gif"",""img/Fire_Up_Distractor.gif"",""img/Fire_Up_Distractor.gif"",""img/Fire_Up_Distractor.gif"",""img/Fire_Up_Distractor.gif"",""img/Fire_Up_Distractor.gif"",""img/Fire_Up_Distractor.gif"",""img/Fire_Up_Distractor.gif"",""img/Fire_Up_Distractor.gif"",""img/Fire_Up_Distractor.gif"",""img/Fire_Up_Distractor.gif""]","7","targetDown_distractorsUp"
"","","","","","html-keyboard-response","174","618219","0.0-14.0-0.0-0.80","60521e44653a99113e8d7927","619531dcf66c91622fa1b861","619595d88483eed60ad86646","null","","null","","","","","main_T1_ITI","","","","",""
"","","","","","visual-search-circle","175","620083","0.0-14.0-0.0-1.80","60521e44653a99113e8d7927","619531dcf66c91622fa1b861","619595d88483eed60ad86646","859.4000000357628","","d","true","[[576,182],[412,21],[182,23],[21,187],[23,417],[187,578],[417,576],[578,412]]","true","8","main_T2_Trial","d","img/Fire_Up_Target.gif","[""img/Fire_Down_Distractor.gif"",""img/Fire_Down_Distractor.gif"",""img/Fire_Down_Distractor.gif"",""img/Fire_Down_Distractor.gif"",""img/Fire_Down_Distractor.gif"",""img/Fire_Down_Distractor.gif"",""img/Fire_Down_Distractor.gif"",""img/Fire_Down_Distractor.gif"",""img/Fire_Down_Distractor.gif"",""img/Fire_Down_Distractor.gif"",""img/Fire_Down_Distractor.gif"",""img/Fire_Down_Distractor.gif""]","8","targetUp_distractorsDown"
"","","","","","html-keyboard-response","176","620086","0.0-14.0-0.0-0.81","60521e44653a99113e8d7927","619531dcf66c91622fa1b861","619595d88483eed60ad86646","null","","null","","","","","main_T1_ITI","","","","",""
"","","","","","visual-search-circle","177","621895","0.0-14.0-0.0-1.81","60521e44653a99113e8d7927","619531dcf66c91622fa1b861","619595d88483eed60ad86646","798.6999999880791","","s","true","[[177,574],[522,500],[559,150],[237,6],[1,268]]","false","5","main_T2_Trial","s","img/Fire_Up_Target.gif","[""img/Fire_Down_Distractor.gif"",""img/Fire_Down_Distractor.gif"",""img/Fire_Down_Distractor.gif"",""img/Fire_Down_Distractor.gif"",""img/Fire_Down_Distractor.gif"",""img/Fire_Down_Distractor.gif"",""img/Fire_Down_Distractor.gif"",""img/Fire_Down_Distractor.gif"",""img/Fire_Down_Distractor.gif"",""img/Fire_Down_Distractor.gif"",""img/Fire_Down_Distractor.gif"",""img/Fire_Down_Distractor.gif""]","5","targetUp_distractorsDown"
"","","","","","html-keyboard-response","178","621897","0.0-14.0-0.0-0.82","60521e44653a99113e8d7927","619531dcf66c91622fa1b861","619595d88483eed60ad86646","null","","null","","","","","main_T1_ITI","","","","",""
"","","","","","visual-search-circle","179","623763","0.0-14.0-0.0-1.82","60521e44653a99113e8d7927","619531dcf66c91622fa1b861","619595d88483eed60ad86646","851.8000000119209","","d","true","[[320,599],[591,372],[458,45],[107,70],[21,412]]","true","5","main_T2_Trial","d","img/Fire_Up_Target.gif","[""img/Fire_Down_Distractor.gif"",""img/Fire_Down_Distractor.gif"",""img/Fire_Down_Distractor.gif"",""img/Fire_Down_Distractor.gif"",""img/Fire_Down_Distractor.gif"",""img/Fire_Down_Distractor.gif"",""img/Fire_Down_Distractor.gif"",""img/Fire_Down_Distractor.gif"",""img/Fire_Down_Distractor.gif"",""img/Fire_Down_Distractor.gif"",""img/Fire_Down_Distractor.gif"",""img/Fire_Down_Distractor.gif""]","5","targetUp_distractorsDown"
"","","","","","html-keyboard-response","180","623766","0.0-14.0-0.0-0.83","60521e44653a99113e8d7927","619531dcf66c91622fa1b861","619595d88483eed60ad86646","null","","null","","","","","main_T1_ITI","","","","",""
"","","","","","visual-search-circle","181","626251","0.0-14.0-0.0-1.83","60521e44653a99113e8d7927","619531dcf66c91622fa1b861","619595d88483eed60ad86646","1481.0999999642372","","s","true","[[567,163],[163,32],[32,436],[436,567]]","false","4","main_T2_Trial","s","img/Fire_Up_Target.gif","[""img/Fire_Down_Distractor.gif"",""img/Fire_Down_Distractor.gif"",""img/Fire_Down_Distractor.gif"",""img/Fire_Down_Distractor.gif"",""img/Fire_Down_Distractor.gif"",""img/Fire_Down_Distractor.gif"",""img/Fire_Down_Distractor.gif"",""img/Fire_Down_Distractor.gif"",""img/Fire_Down_Distractor.gif"",""img/Fire_Down_Distractor.gif"",""img/Fire_Down_Distractor.gif"",""img/Fire_Down_Distractor.gif""]","4","targetUp_distractorsDown"
"","","","","","html-keyboard-response","182","626253","0.0-14.0-0.0-0.84","60521e44653a99113e8d7927","619531dcf66c91622fa1b861","619595d88483eed60ad86646","null","","null","","","","","main_T1_ITI","","","","",""
"","","","","","visual-search-circle","183","629543","0.0-14.0-0.0-1.84","60521e44653a99113e8d7927","619531dcf66c91622fa1b861","619595d88483eed60ad86646","2287.099999964237","","s","true","[[583,202],[357,5],[73,103],[16,397],[242,594],[526,496]]","false","6","main_T2_Trial","s","img/Fire_Down_Target.gif","[""img/Fire_Up_Distractor.gif"",""img/Fire_Up_Distractor.gif"",""img/Fire_Up_Distractor.gif"",""img/Fire_Up_Distractor.gif"",""img/Fire_Up_Distractor.gif"",""img/Fire_Up_Distractor.gif"",""img/Fire_Up_Distractor.gif"",""img/Fire_Up_Distractor.gif"",""img/Fire_Up_Distractor.gif"",""img/Fire_Up_Distractor.gif"",""img/Fire_Up_Distractor.gif"",""img/Fire_Up_Distractor.gif""]","6","targetDown_distractorsUp"
"","","","","","html-keyboard-response","184","629545","0.0-14.0-0.0-0.85","60521e44653a99113e8d7927","619531dcf66c91622fa1b861","619595d88483eed60ad86646","null","","null","","","","","main_T1_ITI","","","","",""
"","","","","","visual-search-circle","185","631326","0.0-14.0-0.0-1.85","60521e44653a99113e8d7927","619531dcf66c91622fa1b861","619595d88483eed60ad86646","775.6999999880791","","d","true","[[73,496],[496,526],[526,103],[103,73]]","true","4","main_T2_Trial","d","img/Fire_Up_Target.gif","[""img/Fire_Down_Distractor.gif"",""img/Fire_Down_Distractor.gif"",""img/Fire_Down_Distractor.gif"",""img/Fire_Down_Distractor.gif"",""img/Fire_Down_Distractor.gif"",""img/Fire_Down_Distractor.gif"",""img/Fire_Down_Distractor.gif"",""img/Fire_Down_Distractor.gif"",""img/Fire_Down_Distractor.gif"",""img/Fire_Down_Distractor.gif"",""img/Fire_Down_Distractor.gif"",""img/Fire_Down_Distractor.gif""]","4","targetUp_distractorsDown"
"","","","","","html-keyboard-response","186","631336","0.0-14.0-0.0-0.86","60521e44653a99113e8d7927","619531dcf66c91622fa1b861","619595d88483eed60ad86646","null","","null","","","","","main_T1_ITI","","","","",""
"","","","","","visual-search-circle","187","634035","0.0-14.0-0.0-1.86","60521e44653a99113e8d7927","619531dcf66c91622fa1b861","619595d88483eed60ad86646","1692.3999999761581","","s","false","[[66,111],[19,407],[253,596],[533,488],[580,192],[346,3]]","true","6","main_T2_Trial","d","img/Fire_Down_Target.gif","[""img/Fire_Up_Distractor.gif"",""img/Fire_Up_Distractor.gif"",""img/Fire_Up_Distractor.gif"",""img/Fire_Up_Distractor.gif"",""img/Fire_Up_Distractor.gif"",""img/Fire_Up_Distractor.gif"",""img/Fire_Up_Distractor.gif"",""img/Fire_Up_Distractor.gif"",""img/Fire_Up_Distractor.gif"",""img/Fire_Up_Distractor.gif"",""img/Fire_Up_Distractor.gif"",""img/Fire_Up_Distractor.gif""]","6","targetDown_distractorsUp"
"","","","","","html-keyboard-response","188","634037","0.0-14.0-0.0-0.87","60521e44653a99113e8d7927","619531dcf66c91622fa1b861","619595d88483eed60ad86646","null","","null","","","","","main_T1_ITI","","","","",""
"","","","","","visual-search-circle","189","635610","0.0-14.0-0.0-1.87","60521e44653a99113e8d7927","619531dcf66c91622fa1b861","619595d88483eed60ad86646","569.5","","d","true","[[412,578],[599,279],[372,8],[45,141],[70,492]]","true","5","main_T2_Trial","d","img/Fire_Down_Target.gif","[""img/Fire_Up_Distractor.gif"",""img/Fire_Up_Distractor.gif"",""img/Fire_Up_Distractor.gif"",""img/Fire_Up_Distractor.gif"",""img/Fire_Up_Distractor.gif"",""img/Fire_Up_Distractor.gif"",""img/Fire_Up_Distractor.gif"",""img/Fire_Up_Distractor.gif"",""img/Fire_Up_Distractor.gif"",""img/Fire_Up_Distractor.gif"",""img/Fire_Up_Distractor.gif"",""img/Fire_Up_Distractor.gif""]","5","targetDown_distractorsUp"
"","","","","","html-keyboard-response","190","635612","0.0-14.0-0.0-0.88","60521e44653a99113e8d7927","619531dcf66c91622fa1b861","619595d88483eed60ad86646","null","","null","","","","","main_T1_ITI","","","","",""
"","","","","","visual-search-circle","191","637794","0.0-14.0-0.0-1.88","60521e44653a99113e8d7927","619531dcf66c91622fa1b861","619595d88483eed60ad86646","1166.300000011921","","s","true","[[463,48],[48,136],[136,551],[551,463]]","false","4","main_T2_Trial","s","img/Fire_Down_Target.gif","[""img/Fire_Up_Distractor.gif"",""img/Fire_Up_Distractor.gif"",""img/Fire_Up_Distractor.gif"",""img/Fire_Up_Distractor.gif"",""img/Fire_Up_Distractor.gif"",""img/Fire_Up_Distractor.gif"",""img/Fire_Up_Distractor.gif"",""img/Fire_Up_Distractor.gif"",""img/Fire_Up_Distractor.gif"",""img/Fire_Up_Distractor.gif"",""img/Fire_Up_Distractor.gif"",""img/Fire_Up_Distractor.gif""]","4","targetDown_distractorsUp"
"","","","","","html-keyboard-response","192","637798","0.0-14.0-0.0-0.89","60521e44653a99113e8d7927","619531dcf66c91622fa1b861","619595d88483eed60ad86646","null","","null","","","","","main_T1_ITI","","","","",""
"","","","","","visual-search-circle","193","639704","0.0-14.0-0.0-1.89","60521e44653a99113e8d7927","619531dcf66c91622fa1b861","619595d88483eed60ad86646","887.8000000119209","","s","true","[[21,187],[23,417],[187,578],[417,576],[578,412],[576,182],[412,21],[182,23]]","false","8","main_T2_Trial","s","img/Fire_Up_Target.gif","[""img/Fire_Down_Distractor.gif"",""img/Fire_Down_Distractor.gif"",""img/Fire_Down_Distractor.gif"",""img/Fire_Down_Distractor.gif"",""img/Fire_Down_Distractor.gif"",""img/Fire_Down_Distractor.gif"",""img/Fire_Down_Distractor.gif"",""img/Fire_Down_Distractor.gif"",""img/Fire_Down_Distractor.gif"",""img/Fire_Down_Distractor.gif"",""img/Fire_Down_Distractor.gif"",""img/Fire_Down_Distractor.gif""]","8","targetUp_distractorsDown"
"","","","","","html-keyboard-response","194","639706","0.0-14.0-0.0-0.90","60521e44653a99113e8d7927","619531dcf66c91622fa1b861","619595d88483eed60ad86646","null","","null","","","","","main_T1_ITI","","","","",""
"","","","","","visual-search-circle","195","641607","0.0-14.0-0.0-1.90","60521e44653a99113e8d7927","619531dcf66c91622fa1b861","619595d88483eed60ad86646","889.6999999880791","","s","true","[[382,11],[11,217],[217,588],[588,382]]","false","4","main_T2_Trial","s","img/Fire_Up_Target.gif","[""img/Fire_Down_Distractor.gif"",""img/Fire_Down_Distractor.gif"",""img/Fire_Down_Distractor.gif"",""img/Fire_Down_Distractor.gif"",""img/Fire_Down_Distractor.gif"",""img/Fire_Down_Distractor.gif"",""img/Fire_Down_Distractor.gif"",""img/Fire_Down_Distractor.gif"",""img/Fire_Down_Distractor.gif"",""img/Fire_Down_Distractor.gif"",""img/Fire_Down_Distractor.gif"",""img/Fire_Down_Distractor.gif""]","4","targetUp_distractorsDown"
"","","","","","html-keyboard-response","196","641609","0.0-14.0-0.0-0.91","60521e44653a99113e8d7927","619531dcf66c91622fa1b861","619595d88483eed60ad86646","null","","null","","","","","main_T1_ITI","","","","",""
"","","","","","visual-search-circle","197","643707","0.0-14.0-0.0-1.91","60521e44653a99113e8d7927","619531dcf66c91622fa1b861","619595d88483eed60ad86646","1082.300000011921","","s","true","[[591,372],[557,145],[372,8],[145,42],[8,227],[42,454],[227,591],[454,557]]","false","8","main_T2_Trial","s","img/Fire_Down_Target.gif","[""img/Fire_Up_Distractor.gif"",""img/Fire_Up_Distractor.gif"",""img/Fire_Up_Distractor.gif"",""img/Fire_Up_Distractor.gif"",""img/Fire_Up_Distractor.gif"",""img/Fire_Up_Distractor.gif"",""img/Fire_Up_Distractor.gif"",""img/Fire_Up_Distractor.gif"",""img/Fire_Up_Distractor.gif"",""img/Fire_Up_Distractor.gif"",""img/Fire_Up_Distractor.gif"",""img/Fire_Up_Distractor.gif""]","8","targetDown_distractorsUp"
"","","","","","html-keyboard-response","198","643711","0.0-14.0-0.0-0.92","60521e44653a99113e8d7927","619531dcf66c91622fa1b861","619595d88483eed60ad86646","null","","null","","","","","main_T1_ITI","","","","",""
"","","","","","visual-search-circle","199","645514","0.0-14.0-0.0-1.92","60521e44653a99113e8d7927","619531dcf66c91622fa1b861","619595d88483eed60ad86646","799.3999999761581","","d","true","[[551,463],[584,205],[403,18],[144,43],[2,261],[84,508],[329,598]]","true","7","main_T2_Trial","d","img/Fire_Down_Target.gif","[""img/Fire_Up_Distractor.gif"",""img/Fire_Up_Distractor.gif"",""img/Fire_Up_Distractor.gif"",""img/Fire_Up_Distractor.gif"",""img/Fire_Up_Distractor.gif"",""img/Fire_Up_Distractor.gif"",""img/Fire_Up_Distractor.gif"",""img/Fire_Up_Distractor.gif"",""img/Fire_Up_Distractor.gif"",""img/Fire_Up_Distractor.gif"",""img/Fire_Up_Distractor.gif"",""img/Fire_Up_Distractor.gif""]","7","targetDown_distractorsUp"
"","","","","","html-keyboard-response","200","645516","0.0-14.0-0.0-0.93","60521e44653a99113e8d7927","619531dcf66c91622fa1b861","619595d88483eed60ad86646","null","","null","","","","","main_T1_ITI","","","","",""
"","","","","","visual-search-circle","201","647869","0.0-14.0-0.0-1.93","60521e44653a99113e8d7927","619531dcf66c91622fa1b861","619595d88483eed60ad86646","1349","","s","false","[[202,583],[460,553],[598,332],[511,86],[264,2],[45,141],[17,400]]","true","7","main_T2_Trial","d","img/Fire_Up_Target.gif","[""img/Fire_Down_Distractor.gif"",""img/Fire_Down_Distractor.gif"",""img/Fire_Down_Distractor.gif"",""img/Fire_Down_Distractor.gif"",""img/Fire_Down_Distractor.gif"",""img/Fire_Down_Distractor.gif"",""img/Fire_Down_Distractor.gif"",""img/Fire_Down_Distractor.gif"",""img/Fire_Down_Distractor.gif"",""img/Fire_Down_Distractor.gif"",""img/Fire_Down_Distractor.gif"",""img/Fire_Down_Distractor.gif""]","7","targetUp_distractorsDown"
"","","","","","html-keyboard-response","202","647871","0.0-14.0-0.0-0.94","60521e44653a99113e8d7927","619531dcf66c91622fa1b861","619595d88483eed60ad86646","null","","null","","","","","main_T1_ITI","","","","",""
"","","","","","visual-search-circle","203","649869","0.0-14.0-0.0-1.94","60521e44653a99113e8d7927","619531dcf66c91622fa1b861","619595d88483eed60ad86646","989","","d","true","[[0,299],[87,512],[299,600],[512,512],[600,300],[512,87],[300,0],[87,87]]","true","8","main_T2_Trial","d","img/Fire_Down_Target.gif","[""img/Fire_Up_Distractor.gif"",""img/Fire_Up_Distractor.gif"",""img/Fire_Up_Distractor.gif"",""img/Fire_Up_Distractor.gif"",""img/Fire_Up_Distractor.gif"",""img/Fire_Up_Distractor.gif"",""img/Fire_Up_Distractor.gif"",""img/Fire_Up_Distractor.gif"",""img/Fire_Up_Distractor.gif"",""img/Fire_Up_Distractor.gif"",""img/Fire_Up_Distractor.gif"",""img/Fire_Up_Distractor.gif""]","8","targetDown_distractorsUp"
"","","","","","html-keyboard-response","204","649872","0.0-14.0-0.0-0.95","60521e44653a99113e8d7927","619531dcf66c91622fa1b861","619595d88483eed60ad86646","null","","null","","","","","main_T1_ITI","","","","",""
"","","","","","visual-search-circle","205","652760","0.0-14.0-0.0-1.95","60521e44653a99113e8d7927","619531dcf66c91622fa1b861","619595d88483eed60ad86646","1879.3999999761581","","s","false","[[599,305],[305,0],[0,294],[294,599]]","true","4","main_T2_Trial","d","img/Fire_Down_Target.gif","[""img/Fire_Up_Distractor.gif"",""img/Fire_Up_Distractor.gif"",""img/Fire_Up_Distractor.gif"",""img/Fire_Up_Distractor.gif"",""img/Fire_Up_Distractor.gif"",""img/Fire_Up_Distractor.gif"",""img/Fire_Up_Distractor.gif"",""img/Fire_Up_Distractor.gif"",""img/Fire_Up_Distractor.gif"",""img/Fire_Up_Distractor.gif"",""img/Fire_Up_Distractor.gif"",""img/Fire_Up_Distractor.gif""]","4","targetDown_distractorsUp"
"","","","","","html-keyboard-response","206","652762","0.0-14.0-0.0-0.96","60521e44653a99113e8d7927","619531dcf66c91622fa1b861","619595d88483eed60ad86646","null","","null","","","","","main_T1_ITI","","","","",""
"","","","","","visual-search-circle","207","654537","0.0-14.0-0.0-1.96","60521e44653a99113e8d7927","619531dcf66c91622fa1b861","619595d88483eed60ad86646","769.1999999880791","","d","true","[[5,242],[51,467],[242,594],[467,548],[594,357],[548,132],[357,5],[132,51]]","true","8","main_T2_Trial","d","img/Fire_Up_Target.gif","[""img/Fire_Down_Distractor.gif"",""img/Fire_Down_Distractor.gif"",""img/Fire_Down_Distractor.gif"",""img/Fire_Down_Distractor.gif"",""img/Fire_Down_Distractor.gif"",""img/Fire_Down_Distractor.gif"",""img/Fire_Down_Distractor.gif"",""img/Fire_Down_Distractor.gif"",""img/Fire_Down_Distractor.gif"",""img/Fire_Down_Distractor.gif"",""img/Fire_Down_Distractor.gif"",""img/Fire_Down_Distractor.gif""]","8","targetUp_distractorsDown"
"","","","","","html-keyboard-response","208","654540","0.0-14.0-0.0-0.97","60521e44653a99113e8d7927","619531dcf66c91622fa1b861","619595d88483eed60ad86646","null","","null","","","","","main_T1_ITI","","","","",""
"","","","","","visual-search-circle","209","656991","0.0-14.0-0.0-1.97","60521e44653a99113e8d7927","619531dcf66c91622fa1b861","619595d88483eed60ad86646","1439","","s","false","[[63,115],[51,467],[382,588],[599,310],[402,18]]","true","5","main_T2_Trial","d","img/Fire_Down_Target.gif","[""img/Fire_Up_Distractor.gif"",""img/Fire_Up_Distractor.gif"",""img/Fire_Up_Distractor.gif"",""img/Fire_Up_Distractor.gif"",""img/Fire_Up_Distractor.gif"",""img/Fire_Up_Distractor.gif"",""img/Fire_Up_Distractor.gif"",""img/Fire_Up_Distractor.gif"",""img/Fire_Up_Distractor.gif"",""img/Fire_Up_Distractor.gif"",""img/Fire_Up_Distractor.gif"",""img/Fire_Up_Distractor.gif""]","5","targetDown_distractorsUp"
"","","","","","html-keyboard-response","210","656993","0.0-14.0-0.0-0.98","60521e44653a99113e8d7927","619531dcf66c91622fa1b861","619595d88483eed60ad86646","null","","null","","","","","main_T1_ITI","","","","",""
"","","","","","visual-search-circle","211","658707","0.0-14.0-0.0-1.98","60521e44653a99113e8d7927","619531dcf66c91622fa1b861","619595d88483eed60ad86646","702.1999999880791","","s","true","[[70,107],[1,326],[107,529],[326,598],[529,492],[598,273],[492,70],[273,1]]","false","8","main_T2_Trial","s","img/Fire_Down_Target.gif","[""img/Fire_Up_Distractor.gif"",""img/Fire_Up_Distractor.gif"",""img/Fire_Up_Distractor.gif"",""img/Fire_Up_Distractor.gif"",""img/Fire_Up_Distractor.gif"",""img/Fire_Up_Distractor.gif"",""img/Fire_Up_Distractor.gif"",""img/Fire_Up_Distractor.gif"",""img/Fire_Up_Distractor.gif"",""img/Fire_Up_Distractor.gif"",""img/Fire_Up_Distractor.gif"",""img/Fire_Up_Distractor.gif""]","8","targetDown_distractorsUp"
"","","","","","html-keyboard-response","212","659635","0.0-14.0-0.0-0.99","60521e44653a99113e8d7927","619531dcf66c91622fa1b861","619595d88483eed60ad86646","927.1999999880791","Wow! You've completed 100 out of 160 trials! </p> <p>  </p><p> Take a quick break, then press any key when you're ready to continue.","s","","","","","main_T1_ITI","","","","",""
"","","","","","visual-search-circle","213","661514","0.0-14.0-0.0-1.99","60521e44653a99113e8d7927","619531dcf66c91622fa1b861","619595d88483eed60ad86646","868.7000000476837","","s","true","[[202,583],[583,397],[397,16],[16,202]]","false","4","main_T2_Trial","s","img/Fire_Up_Target.gif","[""img/Fire_Down_Distractor.gif"",""img/Fire_Down_Distractor.gif"",""img/Fire_Down_Distractor.gif"",""img/Fire_Down_Distractor.gif"",""img/Fire_Down_Distractor.gif"",""img/Fire_Down_Distractor.gif"",""img/Fire_Down_Distractor.gif"",""img/Fire_Down_Distractor.gif"",""img/Fire_Down_Distractor.gif"",""img/Fire_Down_Distractor.gif"",""img/Fire_Down_Distractor.gif"",""img/Fire_Down_Distractor.gif""]","4","targetUp_distractorsDown"
"","","","","","html-keyboard-response","214","661516","0.0-14.0-0.0-0.100","60521e44653a99113e8d7927","619531dcf66c91622fa1b861","619595d88483eed60ad86646","null","","null","","","","","main_T1_ITI","","","","",""
"","","","","","visual-search-circle","215","663159","0.0-14.0-0.0-1.100","60521e44653a99113e8d7927","619531dcf66c91622fa1b861","619595d88483eed60ad86646","640.5999999642372","","s","true","[[454,42],[103,73],[23,417],[326,598],[592,367]]","false","5","main_T2_Trial","s","img/Fire_Up_Target.gif","[""img/Fire_Down_Distractor.gif"",""img/Fire_Down_Distractor.gif"",""img/Fire_Down_Distractor.gif"",""img/Fire_Down_Distractor.gif"",""img/Fire_Down_Distractor.gif"",""img/Fire_Down_Distractor.gif"",""img/Fire_Down_Distractor.gif"",""img/Fire_Down_Distractor.gif"",""img/Fire_Down_Distractor.gif"",""img/Fire_Down_Distractor.gif"",""img/Fire_Down_Distractor.gif"",""img/Fire_Down_Distractor.gif""]","5","targetUp_distractorsDown"
"","","","","","html-keyboard-response","216","663161","0.0-14.0-0.0-0.101","60521e44653a99113e8d7927","619531dcf66c91622fa1b861","619595d88483eed60ad86646","null","","null","","","","","main_T1_ITI","","","","",""
