"success","timeout","failed_images","failed_audio","failed_video","trial_type","trial_index","time_elapsed","internal_node_id","subject_id","study_id","session_id","rt","stimulus","response","correct","locations","target_present","set_size","task","correct_response","target","foilCM","setSizeCM","searchCondition"
"true","false","[]","[]","[]","preload","0","78295","0.0-0.0","60d5f605483d5fe184fcaad8","619531dcf66c91622fa1b861","619599eadaff67e2d91f9efc","","","","","","","","","","","","",""
"true","","","","","fullscreen","1","229757","0.0-1.0","60d5f605483d5fe184fcaad8","619531dcf66c91622fa1b861","619599eadaff67e2d91f9efc","","","","","","","","","","","","",""
"","","","","","html-keyboard-response","2","236993","0.0-2.0","60d5f605483d5fe184fcaad8","619531dcf66c91622fa1b861","619599eadaff67e2d91f9efc","7235.600000023842","What a beautiful Thursday to do some awesome science! </p> <p>  </p><p> </p>
    By completing this survey or questionnaire, you are consenting to be in this research study. </p>
    Your participation is voluntary and you can stop at any time.
    <p> [Press any key to continue.] </p>
    
    ","n","","","","","","","","","",""
"","","","","","video-keyboard-response","3","276109","0.0-3.0","60d5f605483d5fe184fcaad8","619531dcf66c91622fa1b861","619599eadaff67e2d91f9efc","39113.19999998808","[""video/TaskInstructions.mp4""]","s","","","","","","","","","",""
"","","","","","html-keyboard-response","4","283570","0.0-4.0","60d5f605483d5fe184fcaad8","619531dcf66c91622fa1b861","619599eadaff67e2d91f9efc","7460.400000035763","
    <p>First, we're going to do a few practice trials to make sure you understand the task. You will recieve feedback on each trial. </p>
    <p>[Press any key to begin the familiarization phase.]</p>
    ","s","","","","","","","","","",""
"","","","","","visual-search-circle","5","286010","0.0-5.0-0.0","60d5f605483d5fe184fcaad8","619531dcf66c91622fa1b861","619599eadaff67e2d91f9efc","1386.1000000238419","","d","true","[[284,0],[0,315],[315,599],[599,284]]","true","4","training","d","","","",""
"","","","","","html-keyboard-response","6","289257","0.0-6.0","60d5f605483d5fe184fcaad8","619531dcf66c91622fa1b861","619599eadaff67e2d91f9efc","3245.800000011921"," <div style='float: center; '><img src='img/feedbackRight.png'></img> </div> ","s","","","","","","","","","",""
"","","","","","visual-search-circle","7","291892","0.0-7.0-0.0","60d5f605483d5fe184fcaad8","619531dcf66c91622fa1b861","619599eadaff67e2d91f9efc","1631.8999999761581","","s","true","[[66,111],[111,533],[533,488],[488,66]]","false","4","training","s","","","",""
"","","","","","html-keyboard-response","8","293463","0.0-8.0","60d5f605483d5fe184fcaad8","619531dcf66c91622fa1b861","619599eadaff67e2d91f9efc","1570.4000000357628"," <div style='float: center; '><img src='img/feedbackRight.png'></img> </div> ","s","","","","","","","","","",""
"","","","","","visual-search-circle","9","295643","0.0-9.0-0.0","60d5f605483d5fe184fcaad8","619531dcf66c91622fa1b861","619599eadaff67e2d91f9efc","1176.3999999761581","","s","true","[[397,583],[594,357],[496,73],[202,16],[5,242],[103,526]]","false","6","training","s","","","",""
"","","","","","html-keyboard-response","10","296746","0.0-10.0","60d5f605483d5fe184fcaad8","619531dcf66c91622fa1b861","619599eadaff67e2d91f9efc","1102.8999999761581"," <div style='float: center; '><img src='img/feedbackRight.png'></img> </div> ","s","","","","","","","","","",""
"","","","","","visual-search-circle","11","298757","0.0-11.0-0.0","60d5f605483d5fe184fcaad8","619531dcf66c91622fa1b861","619599eadaff67e2d91f9efc","1005.7999999523163","","d","true","[[593,362],[551,136],[362,6],[136,48],[6,237],[48,463],[237,593],[463,551]]","true","8","training","d","","","",""
"","","","","","html-keyboard-response","12","299585","0.0-12.0","60d5f605483d5fe184fcaad8","619531dcf66c91622fa1b861","619599eadaff67e2d91f9efc","828.0999999642372"," <div style='float: center; '><img src='img/feedbackRight.png'></img> </div> ","s","","","","","","","","","",""
"","","","","","video-keyboard-response","13","304195","0.0-13.0","60d5f605483d5fe184fcaad8","619531dcf66c91622fa1b861","619599eadaff67e2d91f9efc","4608","[""video/endTraining.mp4""]","s","","","","","","","","","",""
"","","","","","html-keyboard-response","14","304196","0.0-14.0-0.0-0.0","60d5f605483d5fe184fcaad8","619531dcf66c91622fa1b861","619599eadaff67e2d91f9efc","null","","null","","","","","main_T1_ITI","","","","",""
"","","","","","visual-search-circle","15","306159","0.0-14.0-0.0-1.0","60d5f605483d5fe184fcaad8","619531dcf66c91622fa1b861","619599eadaff67e2d91f9efc","958.6000000238419","","d","true","[[258,2],[4,247],[159,564],[508,515],[569,168]]","true","5","main_T2_Trial","d","img/Fire_Up_Target.gif","[""img/Fire_Down_Distractor.gif"",""img/Fire_Down_Distractor.gif"",""img/Fire_Down_Distractor.gif"",""img/Fire_Down_Distractor.gif"",""img/Fire_Down_Distractor.gif"",""img/Fire_Down_Distractor.gif"",""img/Fire_Down_Distractor.gif"",""img/Fire_Down_Distractor.gif"",""img/Fire_Down_Distractor.gif"",""img/Fire_Down_Distractor.gif"",""img/Fire_Down_Distractor.gif"",""img/Fire_Down_Distractor.gif""]","5","targetUp_distractorsDown"
"","","","","","html-keyboard-response","16","306162","0.0-14.0-0.0-0.1","60d5f605483d5fe184fcaad8","619531dcf66c91622fa1b861","619599eadaff67e2d91f9efc","null","","null","","","","","main_T1_ITI","","","","",""
"","","","","","visual-search-circle","17","308360","0.0-14.0-0.0-1.1","60d5f605483d5fe184fcaad8","619531dcf66c91622fa1b861","619599eadaff67e2d91f9efc","1192.7999999523163","","s","true","[[372,8],[145,42],[8,227],[42,454],[227,591],[454,557],[591,372],[557,145]]","false","8","main_T2_Trial","s","img/Fire_Down_Target.gif","[""img/Fire_Up_Distractor.gif"",""img/Fire_Up_Distractor.gif"",""img/Fire_Up_Distractor.gif"",""img/Fire_Up_Distractor.gif"",""img/Fire_Up_Distractor.gif"",""img/Fire_Up_Distractor.gif"",""img/Fire_Up_Distractor.gif"",""img/Fire_Up_Distractor.gif"",""img/Fire_Up_Distractor.gif"",""img/Fire_Up_Distractor.gif"",""img/Fire_Up_Distractor.gif"",""img/Fire_Up_Distractor.gif""]","8","targetDown_distractorsUp"
"","","","","","html-keyboard-response","18","308361","0.0-14.0-0.0-0.2","60d5f605483d5fe184fcaad8","619531dcf66c91622fa1b861","619599eadaff67e2d91f9efc","null","","null","","","","","main_T1_ITI","","","","",""
"","","","","","visual-search-circle","19","310818","0.0-14.0-0.0-1.2","60d5f605483d5fe184fcaad8","619531dcf66c91622fa1b861","619599eadaff67e2d91f9efc","1452.5999999642372","","s","true","[[222,589],[478,541],[599,311],[495,72],[244,5],[34,159],[25,419]]","false","7","main_T2_Trial","s","img/Fire_Up_Target.gif","[""img/Fire_Down_Distractor.gif"",""img/Fire_Down_Distractor.gif"",""img/Fire_Down_Distractor.gif"",""img/Fire_Down_Distractor.gif"",""img/Fire_Down_Distractor.gif"",""img/Fire_Down_Distractor.gif"",""img/Fire_Down_Distractor.gif"",""img/Fire_Down_Distractor.gif"",""img/Fire_Down_Distractor.gif"",""img/Fire_Down_Distractor.gif"",""img/Fire_Down_Distractor.gif"",""img/Fire_Down_Distractor.gif""]","7","targetUp_distractorsDown"
"","","","","","html-keyboard-response","20","310821","0.0-14.0-0.0-0.3","60d5f605483d5fe184fcaad8","619531dcf66c91622fa1b861","619599eadaff67e2d91f9efc","null","","null","","","","","main_T1_ITI","","","","",""
"","","","","","visual-search-circle","21","312845","0.0-14.0-0.0-1.3","60d5f605483d5fe184fcaad8","619531dcf66c91622fa1b861","619599eadaff67e2d91f9efc","1021.6000000238419","","d","true","[[0,305],[305,599],[599,294],[294,0]]","true","4","main_T2_Trial","d","img/Fire_Down_Target.gif","[""img/Fire_Up_Distractor.gif"",""img/Fire_Up_Distractor.gif"",""img/Fire_Up_Distractor.gif"",""img/Fire_Up_Distractor.gif"",""img/Fire_Up_Distractor.gif"",""img/Fire_Up_Distractor.gif"",""img/Fire_Up_Distractor.gif"",""img/Fire_Up_Distractor.gif"",""img/Fire_Up_Distractor.gif"",""img/Fire_Up_Distractor.gif"",""img/Fire_Up_Distractor.gif"",""img/Fire_Up_Distractor.gif""]","4","targetDown_distractorsUp"
"","","","","","html-keyboard-response","22","312847","0.0-14.0-0.0-0.4","60d5f605483d5fe184fcaad8","619531dcf66c91622fa1b861","619599eadaff67e2d91f9efc","null","","null","","","","","main_T1_ITI","","","","",""
"","","","","","visual-search-circle","23","315014","0.0-14.0-0.0-1.4","60d5f605483d5fe184fcaad8","619531dcf66c91622fa1b861","619599eadaff67e2d91f9efc","1163.2000000476837","","d","true","[[599,289],[440,35],[141,45],[0,310],[159,564],[458,554]]","true","6","main_T2_Trial","d","img/Fire_Up_Target.gif","[""img/Fire_Down_Distractor.gif"",""img/Fire_Down_Distractor.gif"",""img/Fire_Down_Distractor.gif"",""img/Fire_Down_Distractor.gif"",""img/Fire_Down_Distractor.gif"",""img/Fire_Down_Distractor.gif"",""img/Fire_Down_Distractor.gif"",""img/Fire_Down_Distractor.gif"",""img/Fire_Down_Distractor.gif"",""img/Fire_Down_Distractor.gif"",""img/Fire_Down_Distractor.gif"",""img/Fire_Down_Distractor.gif""]","6","targetUp_distractorsDown"
"","","","","","html-keyboard-response","24","315016","0.0-14.0-0.0-0.5","60d5f605483d5fe184fcaad8","619531dcf66c91622fa1b861","619599eadaff67e2d91f9efc","null","","null","","","","","main_T1_ITI","","","","",""
"","","","","","visual-search-circle","25","317464","0.0-14.0-0.0-1.5","60d5f605483d5fe184fcaad8","619531dcf66c91622fa1b861","619599eadaff67e2d91f9efc","1444.5","","s","false","[[177,25],[1,268],[123,542],[422,574],[598,331],[476,57]]","true","6","main_T2_Trial","d","img/Fire_Up_Target.gif","[""img/Fire_Down_Distractor.gif"",""img/Fire_Down_Distractor.gif"",""img/Fire_Down_Distractor.gif"",""img/Fire_Down_Distractor.gif"",""img/Fire_Down_Distractor.gif"",""img/Fire_Down_Distractor.gif"",""img/Fire_Down_Distractor.gif"",""img/Fire_Down_Distractor.gif"",""img/Fire_Down_Distractor.gif"",""img/Fire_Down_Distractor.gif"",""img/Fire_Down_Distractor.gif"",""img/Fire_Down_Distractor.gif""]","6","targetUp_distractorsDown"
"","","","","","html-keyboard-response","26","317467","0.0-14.0-0.0-0.6","60d5f605483d5fe184fcaad8","619531dcf66c91622fa1b861","619599eadaff67e2d91f9efc","null","","null","","","","","main_T1_ITI","","","","",""
"","","","","","visual-search-circle","27","319624","0.0-14.0-0.0-1.6","60d5f605483d5fe184fcaad8","619531dcf66c91622fa1b861","619599eadaff67e2d91f9efc","1154.1000000238419","","s","true","[[19,407],[407,580],[580,192],[192,19]]","false","4","main_T2_Trial","s","img/Fire_Down_Target.gif","[""img/Fire_Up_Distractor.gif"",""img/Fire_Up_Distractor.gif"",""img/Fire_Up_Distractor.gif"",""img/Fire_Up_Distractor.gif"",""img/Fire_Up_Distractor.gif"",""img/Fire_Up_Distractor.gif"",""img/Fire_Up_Distractor.gif"",""img/Fire_Up_Distractor.gif"",""img/Fire_Up_Distractor.gif"",""img/Fire_Up_Distractor.gif"",""img/Fire_Up_Distractor.gif"",""img/Fire_Up_Distractor.gif""]","4","targetDown_distractorsUp"
"","","","","","html-keyboard-response","28","319627","0.0-14.0-0.0-0.7","60d5f605483d5fe184fcaad8","619531dcf66c91622fa1b861","619599eadaff67e2d91f9efc","null","","null","","","","","main_T1_ITI","","","","",""
"","","","","","visual-search-circle","29","321604","0.0-14.0-0.0-1.7","60d5f605483d5fe184fcaad8","619531dcf66c91622fa1b861","619599eadaff67e2d91f9efc","974.8000000119209","","d","true","[[526,103],[103,73],[73,496],[496,526]]","true","4","main_T2_Trial","d","img/Fire_Up_Target.gif","[""img/Fire_Down_Distractor.gif"",""img/Fire_Down_Distractor.gif"",""img/Fire_Down_Distractor.gif"",""img/Fire_Down_Distractor.gif"",""img/Fire_Down_Distractor.gif"",""img/Fire_Down_Distractor.gif"",""img/Fire_Down_Distractor.gif"",""img/Fire_Down_Distractor.gif"",""img/Fire_Down_Distractor.gif"",""img/Fire_Down_Distractor.gif"",""img/Fire_Down_Distractor.gif"",""img/Fire_Down_Distractor.gif""]","4","targetUp_distractorsDown"
"","","","","","html-keyboard-response","30","321609","0.0-14.0-0.0-0.8","60d5f605483d5fe184fcaad8","619531dcf66c91622fa1b861","619599eadaff67e2d91f9efc","null","","null","","","","","main_T1_ITI","","","","",""
"","","","","","visual-search-circle","31","323543","0.0-14.0-0.0-1.8","60d5f605483d5fe184fcaad8","619531dcf66c91622fa1b861","619599eadaff67e2d91f9efc","930.7999999523163","","d","true","[[1,268],[89,513],[335,597],[555,457],[582,198],[396,16],[138,47]]","true","7","main_T2_Trial","d","img/Fire_Down_Target.gif","[""img/Fire_Up_Distractor.gif"",""img/Fire_Up_Distractor.gif"",""img/Fire_Up_Distractor.gif"",""img/Fire_Up_Distractor.gif"",""img/Fire_Up_Distractor.gif"",""img/Fire_Up_Distractor.gif"",""img/Fire_Up_Distractor.gif"",""img/Fire_Up_Distractor.gif"",""img/Fire_Up_Distractor.gif"",""img/Fire_Up_Distractor.gif"",""img/Fire_Up_Distractor.gif"",""img/Fire_Up_Distractor.gif""]","7","targetDown_distractorsUp"
"","","","","","html-keyboard-response","32","323545","0.0-14.0-0.0-0.9","60d5f605483d5fe184fcaad8","619531dcf66c91622fa1b861","619599eadaff67e2d91f9efc","null","","null","","","","","main_T1_ITI","","","","",""
"","","","","","visual-search-circle","33","325374","0.0-14.0-0.0-1.9","60d5f605483d5fe184fcaad8","619531dcf66c91622fa1b861","619599eadaff67e2d91f9efc","825.5999999642372","","s","true","[[480,539],[583,202],[294,0],[13,212],[127,545]]","false","5","main_T2_Trial","s","img/Fire_Down_Target.gif","[""img/Fire_Up_Distractor.gif"",""img/Fire_Up_Distractor.gif"",""img/Fire_Up_Distractor.gif"",""img/Fire_Up_Distractor.gif"",""img/Fire_Up_Distractor.gif"",""img/Fire_Up_Distractor.gif"",""img/Fire_Up_Distractor.gif"",""img/Fire_Up_Distractor.gif"",""img/Fire_Up_Distractor.gif"",""img/Fire_Up_Distractor.gif"",""img/Fire_Up_Distractor.gif"",""img/Fire_Up_Distractor.gif""]","5","targetDown_distractorsUp"
"","","","","","html-keyboard-response","34","325377","0.0-14.0-0.0-0.10","60d5f605483d5fe184fcaad8","619531dcf66c91622fa1b861","619599eadaff67e2d91f9efc","null","","null","","","","","main_T1_ITI","","","","",""
"","","","","","visual-search-circle","35","327424","0.0-14.0-0.0-1.10","60d5f605483d5fe184fcaad8","619531dcf66c91622fa1b861","619599eadaff67e2d91f9efc","1043.6000000238419","","d","false","[[463,48],[111,66],[19,407],[315,599],[589,377]]","false","5","main_T2_Trial","s","img/Fire_Up_Target.gif","[""img/Fire_Down_Distractor.gif"",""img/Fire_Down_Distractor.gif"",""img/Fire_Down_Distractor.gif"",""img/Fire_Down_Distractor.gif"",""img/Fire_Down_Distractor.gif"",""img/Fire_Down_Distractor.gif"",""img/Fire_Down_Distractor.gif"",""img/Fire_Down_Distractor.gif"",""img/Fire_Down_Distractor.gif"",""img/Fire_Down_Distractor.gif"",""img/Fire_Down_Distractor.gif"",""img/Fire_Down_Distractor.gif""]","5","targetUp_distractorsDown"
"","","","","","html-keyboard-response","36","327426","0.0-14.0-0.0-0.11","60d5f605483d5fe184fcaad8","619531dcf66c91622fa1b861","619599eadaff67e2d91f9efc","null","","null","","","","","main_T1_ITI","","","","",""
"","","","","","visual-search-circle","37","329334","0.0-14.0-0.0-1.11","60d5f605483d5fe184fcaad8","619531dcf66c91622fa1b861","619599eadaff67e2d91f9efc","904","","d","true","[[450,40],[222,10],[40,150],[10,377],[149,559],[377,589],[559,450],[589,222]]","true","8","main_T2_Trial","d","img/Fire_Down_Target.gif","[""img/Fire_Up_Distractor.gif"",""img/Fire_Up_Distractor.gif"",""img/Fire_Up_Distractor.gif"",""img/Fire_Up_Distractor.gif"",""img/Fire_Up_Distractor.gif"",""img/Fire_Up_Distractor.gif"",""img/Fire_Up_Distractor.gif"",""img/Fire_Up_Distractor.gif"",""img/Fire_Up_Distractor.gif"",""img/Fire_Up_Distractor.gif"",""img/Fire_Up_Distractor.gif"",""img/Fire_Up_Distractor.gif""]","8","targetDown_distractorsUp"
"","","","","","html-keyboard-response","38","329337","0.0-14.0-0.0-0.12","60d5f605483d5fe184fcaad8","619531dcf66c91622fa1b861","619599eadaff67e2d91f9efc","null","","null","","","","","main_T1_ITI","","","","",""
"","","","","","visual-search-circle","39","331334","0.0-14.0-0.0-1.12","60d5f605483d5fe184fcaad8","619531dcf66c91622fa1b861","619599eadaff67e2d91f9efc","993.6000000238419","","s","true","[[407,19],[111,66],[3,346],[192,580],[488,533],[596,253]]","false","6","main_T2_Trial","s","img/Fire_Up_Target.gif","[""img/Fire_Down_Distractor.gif"",""img/Fire_Down_Distractor.gif"",""img/Fire_Down_Distractor.gif"",""img/Fire_Down_Distractor.gif"",""img/Fire_Down_Distractor.gif"",""img/Fire_Down_Distractor.gif"",""img/Fire_Down_Distractor.gif"",""img/Fire_Down_Distractor.gif"",""img/Fire_Down_Distractor.gif"",""img/Fire_Down_Distractor.gif"",""img/Fire_Down_Distractor.gif"",""img/Fire_Down_Distractor.gif""]","6","targetUp_distractorsDown"
"","","","","","html-keyboard-response","40","331337","0.0-14.0-0.0-0.13","60d5f605483d5fe184fcaad8","619531dcf66c91622fa1b861","619599eadaff67e2d91f9efc","null","","null","","","","","main_T1_ITI","","","","",""
"","","","","","visual-search-circle","41","333347","0.0-14.0-0.0-1.13","60d5f605483d5fe184fcaad8","619531dcf66c91622fa1b861","619599eadaff67e2d91f9efc","1007.3999999761581","","s","true","[[508,84],[84,91],[91,515],[515,508]]","false","4","main_T2_Trial","s","img/Fire_Up_Target.gif","[""img/Fire_Down_Distractor.gif"",""img/Fire_Down_Distractor.gif"",""img/Fire_Down_Distractor.gif"",""img/Fire_Down_Distractor.gif"",""img/Fire_Down_Distractor.gif"",""img/Fire_Down_Distractor.gif"",""img/Fire_Down_Distractor.gif"",""img/Fire_Down_Distractor.gif"",""img/Fire_Down_Distractor.gif"",""img/Fire_Down_Distractor.gif"",""img/Fire_Down_Distractor.gif"",""img/Fire_Down_Distractor.gif""]","4","targetUp_distractorsDown"
"","","","","","html-keyboard-response","42","333349","0.0-14.0-0.0-0.14","60d5f605483d5fe184fcaad8","619531dcf66c91622fa1b861","619599eadaff67e2d91f9efc","null","","null","","","","","main_T1_ITI","","","","",""
"","","","","","visual-search-circle","43","335416","0.0-14.0-0.0-1.14","60d5f605483d5fe184fcaad8","619531dcf66c91622fa1b861","619599eadaff67e2d91f9efc","1063.6000000238419","","d","false","[[5,357],[161,565],[421,574],[590,376],[540,120],[309,0],[71,105]]","false","7","main_T2_Trial","s","img/Fire_Up_Target.gif","[""img/Fire_Down_Distractor.gif"",""img/Fire_Down_Distractor.gif"",""img/Fire_Down_Distractor.gif"",""img/Fire_Down_Distractor.gif"",""img/Fire_Down_Distractor.gif"",""img/Fire_Down_Distractor.gif"",""img/Fire_Down_Distractor.gif"",""img/Fire_Down_Distractor.gif"",""img/Fire_Down_Distractor.gif"",""img/Fire_Down_Distractor.gif"",""img/Fire_Down_Distractor.gif"",""img/Fire_Down_Distractor.gif""]","7","targetUp_distractorsDown"
"","","","","","html-keyboard-response","44","335418","0.0-14.0-0.0-0.15","60d5f605483d5fe184fcaad8","619531dcf66c91622fa1b861","619599eadaff67e2d91f9efc","null","","null","","","","","main_T1_ITI","","","","",""
"","","","","","visual-search-circle","45","338115","0.0-14.0-0.0-1.15","60d5f605483d5fe184fcaad8","619531dcf66c91622fa1b861","619599eadaff67e2d91f9efc","1694.199999988079","","s","false","[[132,51],[11,382],[289,599],[581,402],[484,63]]","true","5","main_T2_Trial","d","img/Fire_Down_Target.gif","[""img/Fire_Up_Distractor.gif"",""img/Fire_Up_Distractor.gif"",""img/Fire_Up_Distractor.gif"",""img/Fire_Up_Distractor.gif"",""img/Fire_Up_Distractor.gif"",""img/Fire_Up_Distractor.gif"",""img/Fire_Up_Distractor.gif"",""img/Fire_Up_Distractor.gif"",""img/Fire_Up_Distractor.gif"",""img/Fire_Up_Distractor.gif"",""img/Fire_Up_Distractor.gif"",""img/Fire_Up_Distractor.gif""]","5","targetDown_distractorsUp"
"","","","","","html-keyboard-response","46","338122","0.0-14.0-0.0-0.16","60d5f605483d5fe184fcaad8","619531dcf66c91622fa1b861","619599eadaff67e2d91f9efc","null","","null","","","","","main_T1_ITI","","","","",""
"","","","","","visual-search-circle","47","340772","0.0-14.0-0.0-1.16","60d5f605483d5fe184fcaad8","619531dcf66c91622fa1b861","619599eadaff67e2d91f9efc","1646.7000000476837","","s","true","[[569,431],[431,30],[30,168],[168,569]]","false","4","main_T2_Trial","s","img/Fire_Up_Target.gif","[""img/Fire_Down_Distractor.gif"",""img/Fire_Down_Distractor.gif"",""img/Fire_Down_Distractor.gif"",""img/Fire_Down_Distractor.gif"",""img/Fire_Down_Distractor.gif"",""img/Fire_Down_Distractor.gif"",""img/Fire_Down_Distractor.gif"",""img/Fire_Down_Distractor.gif"",""img/Fire_Down_Distractor.gif"",""img/Fire_Down_Distractor.gif"",""img/Fire_Down_Distractor.gif"",""img/Fire_Down_Distractor.gif""]","4","targetUp_distractorsDown"
"","","","","","html-keyboard-response","48","340774","0.0-14.0-0.0-0.17","60d5f605483d5fe184fcaad8","619531dcf66c91622fa1b861","619599eadaff67e2d91f9efc","null","","null","","","","","main_T1_ITI","","","","",""
"","","","","","visual-search-circle","49","342722","0.0-14.0-0.0-1.17","60d5f605483d5fe184fcaad8","619531dcf66c91622fa1b861","619599eadaff67e2d91f9efc","944.8000000119209","","d","true","[[145,557],[372,591],[557,454],[591,227],[454,42],[227,8],[42,145],[8,372]]","true","8","main_T2_Trial","d","img/Fire_Down_Target.gif","[""img/Fire_Up_Distractor.gif"",""img/Fire_Up_Distractor.gif"",""img/Fire_Up_Distractor.gif"",""img/Fire_Up_Distractor.gif"",""img/Fire_Up_Distractor.gif"",""img/Fire_Up_Distractor.gif"",""img/Fire_Up_Distractor.gif"",""img/Fire_Up_Distractor.gif"",""img/Fire_Up_Distractor.gif"",""img/Fire_Up_Distractor.gif"",""img/Fire_Up_Distractor.gif"",""img/Fire_Up_Distractor.gif""]","8","targetDown_distractorsUp"
"","","","","","html-keyboard-response","50","342725","0.0-14.0-0.0-0.18","60d5f605483d5fe184fcaad8","619531dcf66c91622fa1b861","619599eadaff67e2d91f9efc","null","","null","","","","","main_T1_ITI","","","","",""
"","","","","","visual-search-circle","51","344967","0.0-14.0-0.0-1.18","60d5f605483d5fe184fcaad8","619531dcf66c91622fa1b861","619599eadaff67e2d91f9efc","1238.8999999761581","","s","true","[[289,0],[35,159],[45,458],[310,599],[564,440],[554,141]]","false","6","main_T2_Trial","s","img/Fire_Up_Target.gif","[""img/Fire_Down_Distractor.gif"",""img/Fire_Down_Distractor.gif"",""img/Fire_Down_Distractor.gif"",""img/Fire_Down_Distractor.gif"",""img/Fire_Down_Distractor.gif"",""img/Fire_Down_Distractor.gif"",""img/Fire_Down_Distractor.gif"",""img/Fire_Down_Distractor.gif"",""img/Fire_Down_Distractor.gif"",""img/Fire_Down_Distractor.gif"",""img/Fire_Down_Distractor.gif"",""img/Fire_Down_Distractor.gif""]","6","targetUp_distractorsDown"
"","","","","","html-keyboard-response","52","352257","0.0-14.0-0.0-0.19","60d5f605483d5fe184fcaad8","619531dcf66c91622fa1b861","619599eadaff67e2d91f9efc","7291","Wow! You've completed 20 out of 160 trials! </p> <p>  </p><p> Take a quick break, then press any key when you're ready to continue.","s","","","","","main_T1_ITI","","","","",""
"","","","","","visual-search-circle","53","354265","0.0-14.0-0.0-1.19","60d5f605483d5fe184fcaad8","619531dcf66c91622fa1b861","619599eadaff67e2d91f9efc","1004","","d","false","[[586,212],[305,0],[16,202],[119,539],[472,545]]","false","5","main_T2_Trial","s","img/Fire_Down_Target.gif","[""img/Fire_Up_Distractor.gif"",""img/Fire_Up_Distractor.gif"",""img/Fire_Up_Distractor.gif"",""img/Fire_Up_Distractor.gif"",""img/Fire_Up_Distractor.gif"",""img/Fire_Up_Distractor.gif"",""img/Fire_Up_Distractor.gif"",""img/Fire_Up_Distractor.gif"",""img/Fire_Up_Distractor.gif"",""img/Fire_Up_Distractor.gif"",""img/Fire_Up_Distractor.gif"",""img/Fire_Up_Distractor.gif""]","5","targetDown_distractorsUp"
"","","","","","html-keyboard-response","54","354268","0.0-14.0-0.0-0.20","60d5f605483d5fe184fcaad8","619531dcf66c91622fa1b861","619599eadaff67e2d91f9efc","null","","null","","","","","main_T1_ITI","","","","",""
"","","","","","visual-search-circle","55","356512","0.0-14.0-0.0-1.20","60d5f605483d5fe184fcaad8","619531dcf66c91622fa1b861","619599eadaff67e2d91f9efc","1240.9000000357628","","s","false","[[554,458],[529,107],[187,21],[0,320],[227,591]]","true","5","main_T2_Trial","d","img/Fire_Up_Target.gif","[""img/Fire_Down_Distractor.gif"",""img/Fire_Down_Distractor.gif"",""img/Fire_Down_Distractor.gif"",""img/Fire_Down_Distractor.gif"",""img/Fire_Down_Distractor.gif"",""img/Fire_Down_Distractor.gif"",""img/Fire_Down_Distractor.gif"",""img/Fire_Down_Distractor.gif"",""img/Fire_Down_Distractor.gif"",""img/Fire_Down_Distractor.gif"",""img/Fire_Down_Distractor.gif"",""img/Fire_Down_Distractor.gif""]","5","targetUp_distractorsDown"
"","","","","","html-keyboard-response","56","356514","0.0-14.0-0.0-0.21","60d5f605483d5fe184fcaad8","619531dcf66c91622fa1b861","619599eadaff67e2d91f9efc","null","","null","","","","","main_T1_ITI","","","","",""
"","","","","","visual-search-circle","57","359007","0.0-14.0-0.0-1.21","60d5f605483d5fe184fcaad8","619531dcf66c91622fa1b861","619599eadaff67e2d91f9efc","1487.300000011921","","s","false","[[37,445],[294,599],[557,454],[562,154],[305,0],[42,145]]","true","6","main_T2_Trial","d","img/Fire_Down_Target.gif","[""img/Fire_Up_Distractor.gif"",""img/Fire_Up_Distractor.gif"",""img/Fire_Up_Distractor.gif"",""img/Fire_Up_Distractor.gif"",""img/Fire_Up_Distractor.gif"",""img/Fire_Up_Distractor.gif"",""img/Fire_Up_Distractor.gif"",""img/Fire_Up_Distractor.gif"",""img/Fire_Up_Distractor.gif"",""img/Fire_Up_Distractor.gif"",""img/Fire_Up_Distractor.gif"",""img/Fire_Up_Distractor.gif""]","6","targetDown_distractorsUp"
"","","","","","html-keyboard-response","58","359232","0.0-14.0-0.0-0.22","60d5f605483d5fe184fcaad8","619531dcf66c91622fa1b861","619599eadaff67e2d91f9efc","null","","null","","","","","main_T1_ITI","","","","",""
"","","","","","visual-search-circle","59","361981","0.0-14.0-0.0-1.22","60d5f605483d5fe184fcaad8","619531dcf66c91622fa1b861","619599eadaff67e2d91f9efc","1744.199999988079","","s","false","[[70,492],[273,598],[492,529],[598,326],[529,107],[326,1],[107,70],[1,273]]","true","8","main_T2_Trial","d","img/Fire_Down_Target.gif","[""img/Fire_Up_Distractor.gif"",""img/Fire_Up_Distractor.gif"",""img/Fire_Up_Distractor.gif"",""img/Fire_Up_Distractor.gif"",""img/Fire_Up_Distractor.gif"",""img/Fire_Up_Distractor.gif"",""img/Fire_Up_Distractor.gif"",""img/Fire_Up_Distractor.gif"",""img/Fire_Up_Distractor.gif"",""img/Fire_Up_Distractor.gif"",""img/Fire_Up_Distractor.gif"",""img/Fire_Up_Distractor.gif""]","8","targetDown_distractorsUp"
"","","","","","html-keyboard-response","60","361983","0.0-14.0-0.0-0.23","60d5f605483d5fe184fcaad8","619531dcf66c91622fa1b861","619599eadaff67e2d91f9efc","null","","null","","","","","main_T1_ITI","","","","",""
"","","","","","visual-search-circle","61","364188","0.0-14.0-0.0-1.23","60d5f605483d5fe184fcaad8","619531dcf66c91622fa1b861","619599eadaff67e2d91f9efc","1200.6000000238419","","s","true","[[197,18],[28,173],[18,402],[173,571],[402,581],[571,426],[581,197],[426,28]]","false","8","main_T2_Trial","s","img/Fire_Up_Target.gif","[""img/Fire_Down_Distractor.gif"",""img/Fire_Down_Distractor.gif"",""img/Fire_Down_Distractor.gif"",""img/Fire_Down_Distractor.gif"",""img/Fire_Down_Distractor.gif"",""img/Fire_Down_Distractor.gif"",""img/Fire_Down_Distractor.gif"",""img/Fire_Down_Distractor.gif"",""img/Fire_Down_Distractor.gif"",""img/Fire_Down_Distractor.gif"",""img/Fire_Down_Distractor.gif"",""img/Fire_Down_Distractor.gif""]","8","targetUp_distractorsDown"
"","","","","","html-keyboard-response","62","364190","0.0-14.0-0.0-0.24","60d5f605483d5fe184fcaad8","619531dcf66c91622fa1b861","619599eadaff67e2d91f9efc","null","","null","","","","","main_T1_ITI","","","","",""
"","","","","","visual-search-circle","63","366534","0.0-14.0-0.0-1.24","60d5f605483d5fe184fcaad8","619531dcf66c91622fa1b861","619599eadaff67e2d91f9efc","1339.199999988079","","s","true","[[14,392],[163,567],[392,585],[567,436],[585,207],[436,32],[207,14],[32,163]]","false","8","main_T2_Trial","s","img/Fire_Down_Target.gif","[""img/Fire_Up_Distractor.gif"",""img/Fire_Up_Distractor.gif"",""img/Fire_Up_Distractor.gif"",""img/Fire_Up_Distractor.gif"",""img/Fire_Up_Distractor.gif"",""img/Fire_Up_Distractor.gif"",""img/Fire_Up_Distractor.gif"",""img/Fire_Up_Distractor.gif"",""img/Fire_Up_Distractor.gif"",""img/Fire_Up_Distractor.gif"",""img/Fire_Up_Distractor.gif"",""img/Fire_Up_Distractor.gif""]","8","targetDown_distractorsUp"
"","","","","","html-keyboard-response","64","366536","0.0-14.0-0.0-0.25","60d5f605483d5fe184fcaad8","619531dcf66c91622fa1b861","619599eadaff67e2d91f9efc","null","","null","","","","","main_T1_ITI","","","","",""
"","","","","","visual-search-circle","65","368757","0.0-14.0-0.0-1.25","60d5f605483d5fe184fcaad8","619531dcf66c91622fa1b861","619599eadaff67e2d91f9efc","1216.2999999523163","","d","true","[[0,284],[77,500],[284,599],[500,522],[599,315],[522,99],[315,0],[99,77]]","true","8","main_T2_Trial","d","img/Fire_Up_Target.gif","[""img/Fire_Down_Distractor.gif"",""img/Fire_Down_Distractor.gif"",""img/Fire_Down_Distractor.gif"",""img/Fire_Down_Distractor.gif"",""img/Fire_Down_Distractor.gif"",""img/Fire_Down_Distractor.gif"",""img/Fire_Down_Distractor.gif"",""img/Fire_Down_Distractor.gif"",""img/Fire_Down_Distractor.gif"",""img/Fire_Down_Distractor.gif"",""img/Fire_Down_Distractor.gif"",""img/Fire_Down_Distractor.gif""]","8","targetUp_distractorsDown"
"","","","","","html-keyboard-response","66","368759","0.0-14.0-0.0-0.26","60d5f605483d5fe184fcaad8","619531dcf66c91622fa1b861","619599eadaff67e2d91f9efc","null","","null","","","","","main_T1_ITI","","","","",""
"","","","","","visual-search-circle","67","371238","0.0-14.0-0.0-1.26","60d5f605483d5fe184fcaad8","619531dcf66c91622fa1b861","619599eadaff67e2d91f9efc","1476","","d","true","[[10,377],[284,599],[580,407],[488,66],[136,48]]","true","5","main_T2_Trial","d","img/Fire_Up_Target.gif","[""img/Fire_Down_Distractor.gif"",""img/Fire_Down_Distractor.gif"",""img/Fire_Down_Distractor.gif"",""img/Fire_Down_Distractor.gif"",""img/Fire_Down_Distractor.gif"",""img/Fire_Down_Distractor.gif"",""img/Fire_Down_Distractor.gif"",""img/Fire_Down_Distractor.gif"",""img/Fire_Down_Distractor.gif"",""img/Fire_Down_Distractor.gif"",""img/Fire_Down_Distractor.gif"",""img/Fire_Down_Distractor.gif""]","5","targetUp_distractorsDown"
"","","","","","html-keyboard-response","68","371241","0.0-14.0-0.0-0.27","60d5f605483d5fe184fcaad8","619531dcf66c91622fa1b861","619599eadaff67e2d91f9efc","null","","null","","","","","main_T1_ITI","","","","",""
"","","","","","visual-search-circle","69","373330","0.0-14.0-0.0-1.27","60d5f605483d5fe184fcaad8","619531dcf66c91622fa1b861","619599eadaff67e2d91f9efc","1085.300000011921","","s","true","[[247,595],[498,524],[599,285],[475,56],[218,11],[23,183],[36,443]]","false","7","main_T2_Trial","s","img/Fire_Down_Target.gif","[""img/Fire_Up_Distractor.gif"",""img/Fire_Up_Distractor.gif"",""img/Fire_Up_Distractor.gif"",""img/Fire_Up_Distractor.gif"",""img/Fire_Up_Distractor.gif"",""img/Fire_Up_Distractor.gif"",""img/Fire_Up_Distractor.gif"",""img/Fire_Up_Distractor.gif"",""img/Fire_Up_Distractor.gif"",""img/Fire_Up_Distractor.gif"",""img/Fire_Up_Distractor.gif"",""img/Fire_Up_Distractor.gif""]","7","targetDown_distractorsUp"
"","","","","","html-keyboard-response","70","373332","0.0-14.0-0.0-0.28","60d5f605483d5fe184fcaad8","619531dcf66c91622fa1b861","619599eadaff67e2d91f9efc","null","","null","","","","","main_T1_ITI","","","","",""
"","","","","","visual-search-circle","71","375694","0.0-14.0-0.0-1.28","60d5f605483d5fe184fcaad8","619531dcf66c91622fa1b861","619599eadaff67e2d91f9efc","1357.5","","s","true","[[567,163],[392,14],[163,32],[14,207],[32,436],[207,585],[436,567],[585,392]]","false","8","main_T2_Trial","s","img/Fire_Down_Target.gif","[""img/Fire_Up_Distractor.gif"",""img/Fire_Up_Distractor.gif"",""img/Fire_Up_Distractor.gif"",""img/Fire_Up_Distractor.gif"",""img/Fire_Up_Distractor.gif"",""img/Fire_Up_Distractor.gif"",""img/Fire_Up_Distractor.gif"",""img/Fire_Up_Distractor.gif"",""img/Fire_Up_Distractor.gif"",""img/Fire_Up_Distractor.gif"",""img/Fire_Up_Distractor.gif"",""img/Fire_Up_Distractor.gif""]","8","targetDown_distractorsUp"
"","","","","","html-keyboard-response","72","375696","0.0-14.0-0.0-0.29","60d5f605483d5fe184fcaad8","619531dcf66c91622fa1b861","619599eadaff67e2d91f9efc","null","","null","","","","","main_T1_ITI","","","","",""
"","","","","","visual-search-circle","73","378703","0.0-14.0-0.0-1.29","60d5f605483d5fe184fcaad8","619531dcf66c91622fa1b861","619599eadaff67e2d91f9efc","2004","","s","false","[[594,357],[445,37],[95,80],[28,426],[336,597]]","true","5","main_T2_Trial","d","img/Fire_Down_Target.gif","[""img/Fire_Up_Distractor.gif"",""img/Fire_Up_Distractor.gif"",""img/Fire_Up_Distractor.gif"",""img/Fire_Up_Distractor.gif"",""img/Fire_Up_Distractor.gif"",""img/Fire_Up_Distractor.gif"",""img/Fire_Up_Distractor.gif"",""img/Fire_Up_Distractor.gif"",""img/Fire_Up_Distractor.gif"",""img/Fire_Up_Distractor.gif"",""img/Fire_Up_Distractor.gif"",""img/Fire_Up_Distractor.gif""]","5","targetDown_distractorsUp"
"","","","","","html-keyboard-response","74","378706","0.0-14.0-0.0-0.30","60d5f605483d5fe184fcaad8","619531dcf66c91622fa1b861","619599eadaff67e2d91f9efc","null","","null","","","","","main_T1_ITI","","","","",""
"","","","","","visual-search-circle","75","381180","0.0-14.0-0.0-1.30","60d5f605483d5fe184fcaad8","619531dcf66c91622fa1b861","619599eadaff67e2d91f9efc","1470.199999988079","","s","true","[[392,14],[99,77],[6,362],[207,585],[500,522],[593,237]]","false","6","main_T2_Trial","s","img/Fire_Down_Target.gif","[""img/Fire_Up_Distractor.gif"",""img/Fire_Up_Distractor.gif"",""img/Fire_Up_Distractor.gif"",""img/Fire_Up_Distractor.gif"",""img/Fire_Up_Distractor.gif"",""img/Fire_Up_Distractor.gif"",""img/Fire_Up_Distractor.gif"",""img/Fire_Up_Distractor.gif"",""img/Fire_Up_Distractor.gif"",""img/Fire_Up_Distractor.gif"",""img/Fire_Up_Distractor.gif"",""img/Fire_Up_Distractor.gif""]","6","targetDown_distractorsUp"
"","","","","","html-keyboard-response","76","381182","0.0-14.0-0.0-0.31","60d5f605483d5fe184fcaad8","619531dcf66c91622fa1b861","619599eadaff67e2d91f9efc","null","","null","","","","","main_T1_ITI","","","","",""
"","","","","","visual-search-circle","77","383747","0.0-14.0-0.0-1.31","60d5f605483d5fe184fcaad8","619531dcf66c91622fa1b861","619599eadaff67e2d91f9efc","1561.199999988079","","d","false","[[597,263],[417,23],[119,60],[2,336],[182,576],[480,539]]","false","6","main_T2_Trial","s","img/Fire_Up_Target.gif","[""img/Fire_Down_Distractor.gif"",""img/Fire_Down_Distractor.gif"",""img/Fire_Down_Distractor.gif"",""img/Fire_Down_Distractor.gif"",""img/Fire_Down_Distractor.gif"",""img/Fire_Down_Distractor.gif"",""img/Fire_Down_Distractor.gif"",""img/Fire_Down_Distractor.gif"",""img/Fire_Down_Distractor.gif"",""img/Fire_Down_Distractor.gif"",""img/Fire_Down_Distractor.gif"",""img/Fire_Down_Distractor.gif""]","6","targetUp_distractorsDown"
"","","","","","html-keyboard-response","78","383749","0.0-14.0-0.0-0.32","60d5f605483d5fe184fcaad8","619531dcf66c91622fa1b861","619599eadaff67e2d91f9efc","null","","null","","","","","main_T1_ITI","","","","",""
"","","","","","visual-search-circle","79","385929","0.0-14.0-0.0-1.32","60d5f605483d5fe184fcaad8","619531dcf66c91622fa1b861","619599eadaff67e2d91f9efc","1175.5","","s","true","[[315,0],[99,77],[0,284],[77,500],[284,599],[500,522],[599,315],[522,99]]","false","8","main_T2_Trial","s","img/Fire_Up_Target.gif","[""img/Fire_Down_Distractor.gif"",""img/Fire_Down_Distractor.gif"",""img/Fire_Down_Distractor.gif"",""img/Fire_Down_Distractor.gif"",""img/Fire_Down_Distractor.gif"",""img/Fire_Down_Distractor.gif"",""img/Fire_Down_Distractor.gif"",""img/Fire_Down_Distractor.gif"",""img/Fire_Down_Distractor.gif"",""img/Fire_Down_Distractor.gif"",""img/Fire_Down_Distractor.gif"",""img/Fire_Down_Distractor.gif""]","8","targetUp_distractorsDown"
"","","","","","html-keyboard-response","80","385932","0.0-14.0-0.0-0.33","60d5f605483d5fe184fcaad8","619531dcf66c91622fa1b861","619599eadaff67e2d91f9efc","null","","null","","","","","main_T1_ITI","","","","",""
"","","","","","visual-search-circle","81","388181","0.0-14.0-0.0-1.33","60d5f605483d5fe184fcaad8","619531dcf66c91622fa1b861","619599eadaff67e2d91f9efc","1245.2999999523163","","s","true","[[19,407],[177,574],[407,580],[574,422],[580,192],[422,25],[192,19],[25,177]]","false","8","main_T2_Trial","s","img/Fire_Up_Target.gif","[""img/Fire_Down_Distractor.gif"",""img/Fire_Down_Distractor.gif"",""img/Fire_Down_Distractor.gif"",""img/Fire_Down_Distractor.gif"",""img/Fire_Down_Distractor.gif"",""img/Fire_Down_Distractor.gif"",""img/Fire_Down_Distractor.gif"",""img/Fire_Down_Distractor.gif"",""img/Fire_Down_Distractor.gif"",""img/Fire_Down_Distractor.gif"",""img/Fire_Down_Distractor.gif"",""img/Fire_Down_Distractor.gif""]","8","targetUp_distractorsDown"
"","","","","","html-keyboard-response","82","388191","0.0-14.0-0.0-0.34","60d5f605483d5fe184fcaad8","619531dcf66c91622fa1b861","619599eadaff67e2d91f9efc","null","","null","","","","","main_T1_ITI","","","","",""
"","","","","","visual-search-circle","83","390406","0.0-14.0-0.0-1.34","60d5f605483d5fe184fcaad8","619531dcf66c91622fa1b861","619599eadaff67e2d91f9efc","1211.199999988079","","d","true","[[35,159],[45,458],[310,599],[564,440],[554,141],[289,0]]","true","6","main_T2_Trial","d","img/Fire_Down_Target.gif","[""img/Fire_Up_Distractor.gif"",""img/Fire_Up_Distractor.gif"",""img/Fire_Up_Distractor.gif"",""img/Fire_Up_Distractor.gif"",""img/Fire_Up_Distractor.gif"",""img/Fire_Up_Distractor.gif"",""img/Fire_Up_Distractor.gif"",""img/Fire_Up_Distractor.gif"",""img/Fire_Up_Distractor.gif"",""img/Fire_Up_Distractor.gif"",""img/Fire_Up_Distractor.gif"",""img/Fire_Up_Distractor.gif""]","6","targetDown_distractorsUp"
"","","","","","html-keyboard-response","84","390408","0.0-14.0-0.0-0.35","60d5f605483d5fe184fcaad8","619531dcf66c91622fa1b861","619599eadaff67e2d91f9efc","null","","null","","","","","main_T1_ITI","","","","",""
"","","","","","visual-search-circle","85","392700","0.0-14.0-0.0-1.35","60d5f605483d5fe184fcaad8","619531dcf66c91622fa1b861","619599eadaff67e2d91f9efc","1288.5","","s","true","[[593,362],[500,77],[207,14],[6,237],[99,522],[392,585]]","false","6","main_T2_Trial","s","img/Fire_Down_Target.gif","[""img/Fire_Up_Distractor.gif"",""img/Fire_Up_Distractor.gif"",""img/Fire_Up_Distractor.gif"",""img/Fire_Up_Distractor.gif"",""img/Fire_Up_Distractor.gif"",""img/Fire_Up_Distractor.gif"",""img/Fire_Up_Distractor.gif"",""img/Fire_Up_Distractor.gif"",""img/Fire_Up_Distractor.gif"",""img/Fire_Up_Distractor.gif"",""img/Fire_Up_Distractor.gif"",""img/Fire_Up_Distractor.gif""]","6","targetDown_distractorsUp"
"","","","","","html-keyboard-response","86","392702","0.0-14.0-0.0-0.36","60d5f605483d5fe184fcaad8","619531dcf66c91622fa1b861","619599eadaff67e2d91f9efc","null","","null","","","","","main_T1_ITI","","","","",""
"","","","","","visual-search-circle","87","395103","0.0-14.0-0.0-1.36","60d5f605483d5fe184fcaad8","619531dcf66c91622fa1b861","619599eadaff67e2d91f9efc","1398","","s","true","[[580,192],[346,3],[66,111],[19,407],[253,596],[533,488]]","false","6","main_T2_Trial","s","img/Fire_Down_Target.gif","[""img/Fire_Up_Distractor.gif"",""img/Fire_Up_Distractor.gif"",""img/Fire_Up_Distractor.gif"",""img/Fire_Up_Distractor.gif"",""img/Fire_Up_Distractor.gif"",""img/Fire_Up_Distractor.gif"",""img/Fire_Up_Distractor.gif"",""img/Fire_Up_Distractor.gif"",""img/Fire_Up_Distractor.gif"",""img/Fire_Up_Distractor.gif"",""img/Fire_Up_Distractor.gif"",""img/Fire_Up_Distractor.gif""]","6","targetDown_distractorsUp"
"","","","","","html-keyboard-response","88","395105","0.0-14.0-0.0-0.37","60d5f605483d5fe184fcaad8","619531dcf66c91622fa1b861","619599eadaff67e2d91f9efc","null","","null","","","","","main_T1_ITI","","","","",""
"","","","","","visual-search-circle","89","397634","0.0-14.0-0.0-1.37","60d5f605483d5fe184fcaad8","619531dcf66c91622fa1b861","619599eadaff67e2d91f9efc","1527.0999999642372","","s","false","[[2,336],[242,594],[562,445],[519,95],[173,28]]","true","5","main_T2_Trial","d","img/Fire_Down_Target.gif","[""img/Fire_Up_Distractor.gif"",""img/Fire_Up_Distractor.gif"",""img/Fire_Up_Distractor.gif"",""img/Fire_Up_Distractor.gif"",""img/Fire_Up_Distractor.gif"",""img/Fire_Up_Distractor.gif"",""img/Fire_Up_Distractor.gif"",""img/Fire_Up_Distractor.gif"",""img/Fire_Up_Distractor.gif"",""img/Fire_Up_Distractor.gif"",""img/Fire_Up_Distractor.gif"",""img/Fire_Up_Distractor.gif""]","5","targetDown_distractorsUp"
"","","","","","html-keyboard-response","90","397636","0.0-14.0-0.0-0.38","60d5f605483d5fe184fcaad8","619531dcf66c91622fa1b861","619599eadaff67e2d91f9efc","null","","null","","","","","main_T1_ITI","","","","",""
"","","","","","visual-search-circle","91","400720","0.0-14.0-0.0-1.38","60d5f605483d5fe184fcaad8","619531dcf66c91622fa1b861","619599eadaff67e2d91f9efc","2082.199999988079","","s","false","[[1,273],[273,598],[598,326],[326,1]]","true","4","main_T2_Trial","d","img/Fire_Down_Target.gif","[""img/Fire_Up_Distractor.gif"",""img/Fire_Up_Distractor.gif"",""img/Fire_Up_Distractor.gif"",""img/Fire_Up_Distractor.gif"",""img/Fire_Up_Distractor.gif"",""img/Fire_Up_Distractor.gif"",""img/Fire_Up_Distractor.gif"",""img/Fire_Up_Distractor.gif"",""img/Fire_Up_Distractor.gif"",""img/Fire_Up_Distractor.gif"",""img/Fire_Up_Distractor.gif"",""img/Fire_Up_Distractor.gif""]","4","targetDown_distractorsUp"
"","","","","","html-keyboard-response","92","401873","0.0-14.0-0.0-0.39","60d5f605483d5fe184fcaad8","619531dcf66c91622fa1b861","619599eadaff67e2d91f9efc","1152.5","Wow! You've completed 40 out of 160 trials! </p> <p>  </p><p> Take a quick break, then press any key when you're ready to continue.","s","","","","","main_T1_ITI","","","","",""
"","","","","","visual-search-circle","93","405489","0.0-14.0-0.0-1.39","60d5f605483d5fe184fcaad8","619531dcf66c91622fa1b861","619599eadaff67e2d91f9efc","2612.199999988079","","d","true","[[417,23],[73,103],[42,454],[367,592],[598,326]]","true","5","main_T2_Trial","d","img/Fire_Down_Target.gif","[""img/Fire_Up_Distractor.gif"",""img/Fire_Up_Distractor.gif"",""img/Fire_Up_Distractor.gif"",""img/Fire_Up_Distractor.gif"",""img/Fire_Up_Distractor.gif"",""img/Fire_Up_Distractor.gif"",""img/Fire_Up_Distractor.gif"",""img/Fire_Up_Distractor.gif"",""img/Fire_Up_Distractor.gif"",""img/Fire_Up_Distractor.gif"",""img/Fire_Up_Distractor.gif"",""img/Fire_Up_Distractor.gif""]","5","targetDown_distractorsUp"
"","","","","","html-keyboard-response","94","405492","0.0-14.0-0.0-0.40","60d5f605483d5fe184fcaad8","619531dcf66c91622fa1b861","619599eadaff67e2d91f9efc","null","","null","","","","","main_T1_ITI","","","","",""
"","","","","","visual-search-circle","95","408147","0.0-14.0-0.0-1.40","60d5f605483d5fe184fcaad8","619531dcf66c91622fa1b861","619599eadaff67e2d91f9efc","1650.1000000238419","","s","false","[[557,145],[372,8],[145,42],[8,227],[42,454],[227,591],[454,557],[591,372]]","true","8","main_T2_Trial","d","img/Fire_Up_Target.gif","[""img/Fire_Down_Distractor.gif"",""img/Fire_Down_Distractor.gif"",""img/Fire_Down_Distractor.gif"",""img/Fire_Down_Distractor.gif"",""img/Fire_Down_Distractor.gif"",""img/Fire_Down_Distractor.gif"",""img/Fire_Down_Distractor.gif"",""img/Fire_Down_Distractor.gif"",""img/Fire_Down_Distractor.gif"",""img/Fire_Down_Distractor.gif"",""img/Fire_Down_Distractor.gif"",""img/Fire_Down_Distractor.gif""]","8","targetUp_distractorsDown"
"","","","","","html-keyboard-response","96","408149","0.0-14.0-0.0-0.41","60d5f605483d5fe184fcaad8","619531dcf66c91622fa1b861","619599eadaff67e2d91f9efc","null","","null","","","","","main_T1_ITI","","","","",""
"","","","","","visual-search-circle","97","412061","0.0-14.0-0.0-1.41","60d5f605483d5fe184fcaad8","619531dcf66c91622fa1b861","619599eadaff67e2d91f9efc","2907.199999988079","","s","false","[[0,320],[129,547],[386,587],[578,410],[560,151],[346,3],[97,79]]","true","7","main_T2_Trial","d","img/Fire_Up_Target.gif","[""img/Fire_Down_Distractor.gif"",""img/Fire_Down_Distractor.gif"",""img/Fire_Down_Distractor.gif"",""img/Fire_Down_Distractor.gif"",""img/Fire_Down_Distractor.gif"",""img/Fire_Down_Distractor.gif"",""img/Fire_Down_Distractor.gif"",""img/Fire_Down_Distractor.gif"",""img/Fire_Down_Distractor.gif"",""img/Fire_Down_Distractor.gif"",""img/Fire_Down_Distractor.gif"",""img/Fire_Down_Distractor.gif""]","7","targetUp_distractorsDown"
"","","","","","html-keyboard-response","98","412062","0.0-14.0-0.0-0.42","60d5f605483d5fe184fcaad8","619531dcf66c91622fa1b861","619599eadaff67e2d91f9efc","null","","null","","","","","main_T1_ITI","","","","",""
"","","","","","visual-search-circle","99","414275","0.0-14.0-0.0-1.42","60d5f605483d5fe184fcaad8","619531dcf66c91622fa1b861","619599eadaff67e2d91f9efc","1209.300000011921","","s","true","[[7,367],[273,598],[576,417],[496,73],[145,42]]","false","5","main_T2_Trial","s","img/Fire_Up_Target.gif","[""img/Fire_Down_Distractor.gif"",""img/Fire_Down_Distractor.gif"",""img/Fire_Down_Distractor.gif"",""img/Fire_Down_Distractor.gif"",""img/Fire_Down_Distractor.gif"",""img/Fire_Down_Distractor.gif"",""img/Fire_Down_Distractor.gif"",""img/Fire_Down_Distractor.gif"",""img/Fire_Down_Distractor.gif"",""img/Fire_Down_Distractor.gif"",""img/Fire_Down_Distractor.gif"",""img/Fire_Down_Distractor.gif""]","5","targetUp_distractorsDown"
"","","","","","html-keyboard-response","100","414281","0.0-14.0-0.0-0.43","60d5f605483d5fe184fcaad8","619531dcf66c91622fa1b861","619599eadaff67e2d91f9efc","null","","null","","","","","main_T1_ITI","","","","",""
"","","","","","visual-search-circle","101","417041","0.0-14.0-0.0-1.43","60d5f605483d5fe184fcaad8","619531dcf66c91622fa1b861","619599eadaff67e2d91f9efc","1757","","d","true","[[197,18],[0,310],[217,588],[548,467],[536,115]]","true","5","main_T2_Trial","d","img/Fire_Up_Target.gif","[""img/Fire_Down_Distractor.gif"",""img/Fire_Down_Distractor.gif"",""img/Fire_Down_Distractor.gif"",""img/Fire_Down_Distractor.gif"",""img/Fire_Down_Distractor.gif"",""img/Fire_Down_Distractor.gif"",""img/Fire_Down_Distractor.gif"",""img/Fire_Down_Distractor.gif"",""img/Fire_Down_Distractor.gif"",""img/Fire_Down_Distractor.gif"",""img/Fire_Down_Distractor.gif"",""img/Fire_Down_Distractor.gif""]","5","targetUp_distractorsDown"
"","","","","","html-keyboard-response","102","417044","0.0-14.0-0.0-0.44","60d5f605483d5fe184fcaad8","619531dcf66c91622fa1b861","619599eadaff67e2d91f9efc","null","","null","","","","","main_T1_ITI","","","","",""
"","","","","","visual-search-circle","103","419394","0.0-14.0-0.0-1.44","60d5f605483d5fe184fcaad8","619531dcf66c91622fa1b861","619599eadaff67e2d91f9efc","1346.9000000357628","","s","true","[[8,227],[141,554],[492,529],[578,187],[279,0]]","false","5","main_T2_Trial","s","img/Fire_Up_Target.gif","[""img/Fire_Down_Distractor.gif"",""img/Fire_Down_Distractor.gif"",""img/Fire_Down_Distractor.gif"",""img/Fire_Down_Distractor.gif"",""img/Fire_Down_Distractor.gif"",""img/Fire_Down_Distractor.gif"",""img/Fire_Down_Distractor.gif"",""img/Fire_Down_Distractor.gif"",""img/Fire_Down_Distractor.gif"",""img/Fire_Down_Distractor.gif"",""img/Fire_Down_Distractor.gif"",""img/Fire_Down_Distractor.gif""]","5","targetUp_distractorsDown"
"","","","","","html-keyboard-response","104","419396","0.0-14.0-0.0-0.45","60d5f605483d5fe184fcaad8","619531dcf66c91622fa1b861","619599eadaff67e2d91f9efc","null","","null","","","","","main_T1_ITI","","","","",""
"","","","","","visual-search-circle","105","422217","0.0-14.0-0.0-1.45","60d5f605483d5fe184fcaad8","619531dcf66c91622fa1b861","619599eadaff67e2d91f9efc","1818.5999999642372","","s","true","[[476,542],[598,268],[422,25],[123,57],[1,331],[177,574]]","false","6","main_T2_Trial","s","img/Fire_Down_Target.gif","[""img/Fire_Up_Distractor.gif"",""img/Fire_Up_Distractor.gif"",""img/Fire_Up_Distractor.gif"",""img/Fire_Up_Distractor.gif"",""img/Fire_Up_Distractor.gif"",""img/Fire_Up_Distractor.gif"",""img/Fire_Up_Distractor.gif"",""img/Fire_Up_Distractor.gif"",""img/Fire_Up_Distractor.gif"",""img/Fire_Up_Distractor.gif"",""img/Fire_Up_Distractor.gif"",""img/Fire_Up_Distractor.gif""]","6","targetDown_distractorsUp"
"","","","","","html-keyboard-response","106","422219","0.0-14.0-0.0-0.46","60d5f605483d5fe184fcaad8","619531dcf66c91622fa1b861","619599eadaff67e2d91f9efc","null","","null","","","","","main_T1_ITI","","","","",""
"","","","","","visual-search-circle","107","424748","0.0-14.0-0.0-1.46","60d5f605483d5fe184fcaad8","619531dcf66c91622fa1b861","619599eadaff67e2d91f9efc","1525.3999999761581","","s","true","[[42,454],[367,592],[598,326],[417,23],[73,103]]","false","5","main_T2_Trial","s","img/Fire_Up_Target.gif","[""img/Fire_Down_Distractor.gif"",""img/Fire_Down_Distractor.gif"",""img/Fire_Down_Distractor.gif"",""img/Fire_Down_Distractor.gif"",""img/Fire_Down_Distractor.gif"",""img/Fire_Down_Distractor.gif"",""img/Fire_Down_Distractor.gif"",""img/Fire_Down_Distractor.gif"",""img/Fire_Down_Distractor.gif"",""img/Fire_Down_Distractor.gif"",""img/Fire_Down_Distractor.gif"",""img/Fire_Down_Distractor.gif""]","5","targetUp_distractorsDown"
"","","","","","html-keyboard-response","108","424750","0.0-14.0-0.0-0.47","60d5f605483d5fe184fcaad8","619531dcf66c91622fa1b861","619599eadaff67e2d91f9efc","null","","null","","","","","main_T1_ITI","","","","",""
"","","","","","visual-search-circle","109","427569","0.0-14.0-0.0-1.47","60d5f605483d5fe184fcaad8","619531dcf66c91622fa1b861","619599eadaff67e2d91f9efc","1815","","s","false","[[25,422],[224,590],[479,540],[599,308],[493,71],[242,5],[33,161]]","true","7","main_T2_Trial","d","img/Fire_Up_Target.gif","[""img/Fire_Down_Distractor.gif"",""img/Fire_Down_Distractor.gif"",""img/Fire_Down_Distractor.gif"",""img/Fire_Down_Distractor.gif"",""img/Fire_Down_Distractor.gif"",""img/Fire_Down_Distractor.gif"",""img/Fire_Down_Distractor.gif"",""img/Fire_Down_Distractor.gif"",""img/Fire_Down_Distractor.gif"",""img/Fire_Down_Distractor.gif"",""img/Fire_Down_Distractor.gif"",""img/Fire_Down_Distractor.gif""]","7","targetUp_distractorsDown"
"","","","","","html-keyboard-response","110","427571","0.0-14.0-0.0-0.48","60d5f605483d5fe184fcaad8","619531dcf66c91622fa1b861","619599eadaff67e2d91f9efc","null","","null","","","","","main_T1_ITI","","","","",""
"","","","","","visual-search-circle","111","429744","0.0-14.0-0.0-1.48","60d5f605483d5fe184fcaad8","619531dcf66c91622fa1b861","619599eadaff67e2d91f9efc","1169.800000011921","","d","true","[[77,500],[317,599],[545,472],[587,215],[413,22],[153,37],[4,250]]","true","7","main_T2_Trial","d","img/Fire_Up_Target.gif","[""img/Fire_Down_Distractor.gif"",""img/Fire_Down_Distractor.gif"",""img/Fire_Down_Distractor.gif"",""img/Fire_Down_Distractor.gif"",""img/Fire_Down_Distractor.gif"",""img/Fire_Down_Distractor.gif"",""img/Fire_Down_Distractor.gif"",""img/Fire_Down_Distractor.gif"",""img/Fire_Down_Distractor.gif"",""img/Fire_Down_Distractor.gif"",""img/Fire_Down_Distractor.gif"",""img/Fire_Down_Distractor.gif""]","7","targetUp_distractorsDown"
"","","","","","html-keyboard-response","112","429754","0.0-14.0-0.0-0.49","60d5f605483d5fe184fcaad8","619531dcf66c91622fa1b861","619599eadaff67e2d91f9efc","null","","null","","","","","main_T1_ITI","","","","",""
"","","","","","visual-search-circle","113","432155","0.0-14.0-0.0-1.49","60d5f605483d5fe184fcaad8","619531dcf66c91622fa1b861","619599eadaff67e2d91f9efc","1396.7999999523163","","s","true","[[13,387],[189,578],[449,560],[596,345],[520,96],[278,0],[52,130]]","false","7","main_T2_Trial","s","img/Fire_Down_Target.gif","[""img/Fire_Up_Distractor.gif"",""img/Fire_Up_Distractor.gif"",""img/Fire_Up_Distractor.gif"",""img/Fire_Up_Distractor.gif"",""img/Fire_Up_Distractor.gif"",""img/Fire_Up_Distractor.gif"",""img/Fire_Up_Distractor.gif"",""img/Fire_Up_Distractor.gif"",""img/Fire_Up_Distractor.gif"",""img/Fire_Up_Distractor.gif"",""img/Fire_Up_Distractor.gif"",""img/Fire_Up_Distractor.gif""]","7","targetDown_distractorsUp"
"","","","","","html-keyboard-response","114","432157","0.0-14.0-0.0-0.50","60d5f605483d5fe184fcaad8","619531dcf66c91622fa1b861","619599eadaff67e2d91f9efc","null","","null","","","","","main_T1_ITI","","","","",""
"","","","","","visual-search-circle","115","434619","0.0-14.0-0.0-1.50","60d5f605483d5fe184fcaad8","619531dcf66c91622fa1b861","619599eadaff67e2d91f9efc","1457.800000011921","","d","true","[[484,63],[263,2],[63,115],[2,336],[115,536],[336,597],[536,484],[597,263]]","true","8","main_T2_Trial","d","img/Fire_Down_Target.gif","[""img/Fire_Up_Distractor.gif"",""img/Fire_Up_Distractor.gif"",""img/Fire_Up_Distractor.gif"",""img/Fire_Up_Distractor.gif"",""img/Fire_Up_Distractor.gif"",""img/Fire_Up_Distractor.gif"",""img/Fire_Up_Distractor.gif"",""img/Fire_Up_Distractor.gif"",""img/Fire_Up_Distractor.gif"",""img/Fire_Up_Distractor.gif"",""img/Fire_Up_Distractor.gif"",""img/Fire_Up_Distractor.gif""]","8","targetDown_distractorsUp"
"","","","","","html-keyboard-response","116","434621","0.0-14.0-0.0-0.51","60d5f605483d5fe184fcaad8","619531dcf66c91622fa1b861","619599eadaff67e2d91f9efc","null","","null","","","","","main_T1_ITI","","","","",""
"","","","","","visual-search-circle","117","437072","0.0-14.0-0.0-1.51","60d5f605483d5fe184fcaad8","619531dcf66c91622fa1b861","619599eadaff67e2d91f9efc","1447","","s","false","[[536,484],[578,187],[341,2],[63,115],[21,412],[258,597]]","true","6","main_T2_Trial","d","img/Fire_Up_Target.gif","[""img/Fire_Down_Distractor.gif"",""img/Fire_Down_Distractor.gif"",""img/Fire_Down_Distractor.gif"",""img/Fire_Down_Distractor.gif"",""img/Fire_Down_Distractor.gif"",""img/Fire_Down_Distractor.gif"",""img/Fire_Down_Distractor.gif"",""img/Fire_Down_Distractor.gif"",""img/Fire_Down_Distractor.gif"",""img/Fire_Down_Distractor.gif"",""img/Fire_Down_Distractor.gif"",""img/Fire_Down_Distractor.gif""]","6","targetUp_distractorsDown"
"","","","","","html-keyboard-response","118","437074","0.0-14.0-0.0-0.52","60d5f605483d5fe184fcaad8","619531dcf66c91622fa1b861","619599eadaff67e2d91f9efc","null","","null","","","","","main_T1_ITI","","","","",""
"","","","","","visual-search-circle","119","439548","0.0-14.0-0.0-1.52","60d5f605483d5fe184fcaad8","619531dcf66c91622fa1b861","619599eadaff67e2d91f9efc","1468.800000011921","","d","true","[[588,217],[217,11],[11,382],[382,588]]","true","4","main_T2_Trial","d","img/Fire_Down_Target.gif","[""img/Fire_Up_Distractor.gif"",""img/Fire_Up_Distractor.gif"",""img/Fire_Up_Distractor.gif"",""img/Fire_Up_Distractor.gif"",""img/Fire_Up_Distractor.gif"",""img/Fire_Up_Distractor.gif"",""img/Fire_Up_Distractor.gif"",""img/Fire_Up_Distractor.gif"",""img/Fire_Up_Distractor.gif"",""img/Fire_Up_Distractor.gif"",""img/Fire_Up_Distractor.gif"",""img/Fire_Up_Distractor.gif""]","4","targetDown_distractorsUp"
"","","","","","html-keyboard-response","120","439550","0.0-14.0-0.0-0.53","60d5f605483d5fe184fcaad8","619531dcf66c91622fa1b861","619599eadaff67e2d91f9efc","null","","null","","","","","main_T1_ITI","","","","",""
"","","","","","visual-search-circle","121","442102","0.0-14.0-0.0-1.53","60d5f605483d5fe184fcaad8","619531dcf66c91622fa1b861","619599eadaff67e2d91f9efc","1549.0999999642372","","d","true","[[545,472],[472,54],[54,127],[127,545]]","true","4","main_T2_Trial","d","img/Fire_Down_Target.gif","[""img/Fire_Up_Distractor.gif"",""img/Fire_Up_Distractor.gif"",""img/Fire_Up_Distractor.gif"",""img/Fire_Up_Distractor.gif"",""img/Fire_Up_Distractor.gif"",""img/Fire_Up_Distractor.gif"",""img/Fire_Up_Distractor.gif"",""img/Fire_Up_Distractor.gif"",""img/Fire_Up_Distractor.gif"",""img/Fire_Up_Distractor.gif"",""img/Fire_Up_Distractor.gif"",""img/Fire_Up_Distractor.gif""]","4","targetDown_distractorsUp"
"","","","","","html-keyboard-response","122","442105","0.0-14.0-0.0-0.54","60d5f605483d5fe184fcaad8","619531dcf66c91622fa1b861","619599eadaff67e2d91f9efc","null","","null","","","","","main_T1_ITI","","","","",""
"","","","","","visual-search-circle","123","445492","0.0-14.0-0.0-1.54","60d5f605483d5fe184fcaad8","619531dcf66c91622fa1b861","619599eadaff67e2d91f9efc","2383.800000011921","","d","true","[[377,589],[589,377],[512,87],[222,10],[10,222],[87,512]]","true","6","main_T2_Trial","d","img/Fire_Up_Target.gif","[""img/Fire_Down_Distractor.gif"",""img/Fire_Down_Distractor.gif"",""img/Fire_Down_Distractor.gif"",""img/Fire_Down_Distractor.gif"",""img/Fire_Down_Distractor.gif"",""img/Fire_Down_Distractor.gif"",""img/Fire_Down_Distractor.gif"",""img/Fire_Down_Distractor.gif"",""img/Fire_Down_Distractor.gif"",""img/Fire_Down_Distractor.gif"",""img/Fire_Down_Distractor.gif"",""img/Fire_Down_Distractor.gif""]","6","targetUp_distractorsDown"
"","","","","","html-keyboard-response","124","445494","0.0-14.0-0.0-0.55","60d5f605483d5fe184fcaad8","619531dcf66c91622fa1b861","619599eadaff67e2d91f9efc","null","","null","","","","","main_T1_ITI","","","","",""
"","","","","","visual-search-circle","125","448302","0.0-14.0-0.0-1.55","60d5f605483d5fe184fcaad8","619531dcf66c91622fa1b861","619599eadaff67e2d91f9efc","1803.9000000357628","","s","true","[[207,585],[465,550],[598,326],[507,83],[259,2],[42,146],[19,405]]","false","7","main_T2_Trial","s","img/Fire_Down_Target.gif","[""img/Fire_Up_Distractor.gif"",""img/Fire_Up_Distractor.gif"",""img/Fire_Up_Distractor.gif"",""img/Fire_Up_Distractor.gif"",""img/Fire_Up_Distractor.gif"",""img/Fire_Up_Distractor.gif"",""img/Fire_Up_Distractor.gif"",""img/Fire_Up_Distractor.gif"",""img/Fire_Up_Distractor.gif"",""img/Fire_Up_Distractor.gif"",""img/Fire_Up_Distractor.gif"",""img/Fire_Up_Distractor.gif""]","7","targetDown_distractorsUp"
"","","","","","html-keyboard-response","126","448304","0.0-14.0-0.0-0.56","60d5f605483d5fe184fcaad8","619531dcf66c91622fa1b861","619599eadaff67e2d91f9efc","null","","null","","","","","main_T1_ITI","","","","",""
"","","","","","visual-search-circle","127","450975","0.0-14.0-0.0-1.56","60d5f605483d5fe184fcaad8","619531dcf66c91622fa1b861","619599eadaff67e2d91f9efc","1665.3999999761581","","d","true","[[392,14],[134,49],[1,273],[92,516],[340,597],[557,453],[580,194]]","true","7","main_T2_Trial","d","img/Fire_Up_Target.gif","[""img/Fire_Down_Distractor.gif"",""img/Fire_Down_Distractor.gif"",""img/Fire_Down_Distractor.gif"",""img/Fire_Down_Distractor.gif"",""img/Fire_Down_Distractor.gif"",""img/Fire_Down_Distractor.gif"",""img/Fire_Down_Distractor.gif"",""img/Fire_Down_Distractor.gif"",""img/Fire_Down_Distractor.gif"",""img/Fire_Down_Distractor.gif"",""img/Fire_Down_Distractor.gif"",""img/Fire_Down_Distractor.gif""]","7","targetUp_distractorsDown"
"","","","","","html-keyboard-response","128","450978","0.0-14.0-0.0-0.57","60d5f605483d5fe184fcaad8","619531dcf66c91622fa1b861","619599eadaff67e2d91f9efc","null","","null","","","","","main_T1_ITI","","","","",""
"","","","","","visual-search-circle","129","454388","0.0-14.0-0.0-1.57","60d5f605483d5fe184fcaad8","619531dcf66c91622fa1b861","619599eadaff67e2d91f9efc","2406.699999988079","","d","true","[[596,346],[436,32],[87,87],[32,436],[346,596]]","true","5","main_T2_Trial","d","img/Fire_Up_Target.gif","[""img/Fire_Down_Distractor.gif"",""img/Fire_Down_Distractor.gif"",""img/Fire_Down_Distractor.gif"",""img/Fire_Down_Distractor.gif"",""img/Fire_Down_Distractor.gif"",""img/Fire_Down_Distractor.gif"",""img/Fire_Down_Distractor.gif"",""img/Fire_Down_Distractor.gif"",""img/Fire_Down_Distractor.gif"",""img/Fire_Down_Distractor.gif"",""img/Fire_Down_Distractor.gif"",""img/Fire_Down_Distractor.gif""]","5","targetUp_distractorsDown"
"","","","","","html-keyboard-response","130","454390","0.0-14.0-0.0-0.58","60d5f605483d5fe184fcaad8","619531dcf66c91622fa1b861","619599eadaff67e2d91f9efc","null","","null","","","","","main_T1_ITI","","","","",""
"","","","","","visual-search-circle","131","456640","0.0-14.0-0.0-1.58","60d5f605483d5fe184fcaad8","619531dcf66c91622fa1b861","619599eadaff67e2d91f9efc","1247.5","","s","true","[[392,585],[600,300],[392,14],[57,123],[57,476]]","false","5","main_T2_Trial","s","img/Fire_Down_Target.gif","[""img/Fire_Up_Distractor.gif"",""img/Fire_Up_Distractor.gif"",""img/Fire_Up_Distractor.gif"",""img/Fire_Up_Distractor.gif"",""img/Fire_Up_Distractor.gif"",""img/Fire_Up_Distractor.gif"",""img/Fire_Up_Distractor.gif"",""img/Fire_Up_Distractor.gif"",""img/Fire_Up_Distractor.gif"",""img/Fire_Up_Distractor.gif"",""img/Fire_Up_Distractor.gif"",""img/Fire_Up_Distractor.gif""]","5","targetDown_distractorsUp"
"","","","","","html-keyboard-response","132","459353","0.0-14.0-0.0-0.59","60d5f605483d5fe184fcaad8","619531dcf66c91622fa1b861","619599eadaff67e2d91f9efc","2712.800000011921","Wow! You've completed 60 out of 160 trials! </p> <p>  </p><p> Take a quick break, then press any key when you're ready to continue.","s","","","","","main_T1_ITI","","","","",""
"","","","","","visual-search-circle","133","462263","0.0-14.0-0.0-1.59","60d5f605483d5fe184fcaad8","619531dcf66c91622fa1b861","619599eadaff67e2d91f9efc","1906.8999999761581","","s","false","[[305,0],[16,202],[119,539],[472,545],[586,212]]","true","5","main_T2_Trial","d","img/Fire_Up_Target.gif","[""img/Fire_Down_Distractor.gif"",""img/Fire_Down_Distractor.gif"",""img/Fire_Down_Distractor.gif"",""img/Fire_Down_Distractor.gif"",""img/Fire_Down_Distractor.gif"",""img/Fire_Down_Distractor.gif"",""img/Fire_Down_Distractor.gif"",""img/Fire_Down_Distractor.gif"",""img/Fire_Down_Distractor.gif"",""img/Fire_Down_Distractor.gif"",""img/Fire_Down_Distractor.gif"",""img/Fire_Down_Distractor.gif""]","5","targetUp_distractorsDown"
"","","","","","html-keyboard-response","134","462266","0.0-14.0-0.0-0.60","60d5f605483d5fe184fcaad8","619531dcf66c91622fa1b861","619599eadaff67e2d91f9efc","null","","null","","","","","main_T1_ITI","","","","",""
"","","","","","visual-search-circle","135","464239","0.0-14.0-0.0-1.60","60d5f605483d5fe184fcaad8","619531dcf66c91622fa1b861","619599eadaff67e2d91f9efc","968.3999999761581","","d","true","[[367,592],[554,458],[592,232],[458,45],[232,7],[45,141],[7,367],[141,554]]","true","8","main_T2_Trial","d","img/Fire_Up_Target.gif","[""img/Fire_Down_Distractor.gif"",""img/Fire_Down_Distractor.gif"",""img/Fire_Down_Distractor.gif"",""img/Fire_Down_Distractor.gif"",""img/Fire_Down_Distractor.gif"",""img/Fire_Down_Distractor.gif"",""img/Fire_Down_Distractor.gif"",""img/Fire_Down_Distractor.gif"",""img/Fire_Down_Distractor.gif"",""img/Fire_Down_Distractor.gif"",""img/Fire_Down_Distractor.gif"",""img/Fire_Down_Distractor.gif""]","8","targetUp_distractorsDown"
"","","","","","html-keyboard-response","136","464242","0.0-14.0-0.0-0.61","60d5f605483d5fe184fcaad8","619531dcf66c91622fa1b861","619599eadaff67e2d91f9efc","null","","null","","","","","main_T1_ITI","","","","",""
"","","","","","visual-search-circle","137","466274","0.0-14.0-0.0-1.61","60d5f605483d5fe184fcaad8","619531dcf66c91622fa1b861","619599eadaff67e2d91f9efc","1029.5","","s","true","[[387,586],[599,305],[397,16],[60,119],[54,472]]","false","5","main_T2_Trial","s","img/Fire_Up_Target.gif","[""img/Fire_Down_Distractor.gif"",""img/Fire_Down_Distractor.gif"",""img/Fire_Down_Distractor.gif"",""img/Fire_Down_Distractor.gif"",""img/Fire_Down_Distractor.gif"",""img/Fire_Down_Distractor.gif"",""img/Fire_Down_Distractor.gif"",""img/Fire_Down_Distractor.gif"",""img/Fire_Down_Distractor.gif"",""img/Fire_Down_Distractor.gif"",""img/Fire_Down_Distractor.gif"",""img/Fire_Down_Distractor.gif""]","5","targetUp_distractorsDown"
"","","","","","html-keyboard-response","138","466279","0.0-14.0-0.0-0.62","60d5f605483d5fe184fcaad8","619531dcf66c91622fa1b861","619599eadaff67e2d91f9efc","null","","null","","","","","main_T1_ITI","","","","",""
"","","","","","visual-search-circle","139","468820","0.0-14.0-0.0-1.62","60d5f605483d5fe184fcaad8","619531dcf66c91622fa1b861","619599eadaff67e2d91f9efc","1536.9000000357628","","s","true","[[136,551],[362,593],[551,463],[593,237],[463,48],[237,6],[48,136],[6,362]]","false","8","main_T2_Trial","s","img/Fire_Down_Target.gif","[""img/Fire_Up_Distractor.gif"",""img/Fire_Up_Distractor.gif"",""img/Fire_Up_Distractor.gif"",""img/Fire_Up_Distractor.gif"",""img/Fire_Up_Distractor.gif"",""img/Fire_Up_Distractor.gif"",""img/Fire_Up_Distractor.gif"",""img/Fire_Up_Distractor.gif"",""img/Fire_Up_Distractor.gif"",""img/Fire_Up_Distractor.gif"",""img/Fire_Up_Distractor.gif"",""img/Fire_Up_Distractor.gif""]","8","targetDown_distractorsUp"
"","","","","","html-keyboard-response","140","468823","0.0-14.0-0.0-0.63","60d5f605483d5fe184fcaad8","619531dcf66c91622fa1b861","619599eadaff67e2d91f9efc","null","","null","","","","","main_T1_ITI","","","","",""
"","","","","","visual-search-circle","141","471473","0.0-14.0-0.0-1.63","60d5f605483d5fe184fcaad8","619531dcf66c91622fa1b861","619599eadaff67e2d91f9efc","1645.8999999761581","","s","false","[[402,581],[595,352],[492,70],[197,18],[4,247],[107,529]]","true","6","main_T2_Trial","d","img/Fire_Up_Target.gif","[""img/Fire_Down_Distractor.gif"",""img/Fire_Down_Distractor.gif"",""img/Fire_Down_Distractor.gif"",""img/Fire_Down_Distractor.gif"",""img/Fire_Down_Distractor.gif"",""img/Fire_Down_Distractor.gif"",""img/Fire_Down_Distractor.gif"",""img/Fire_Down_Distractor.gif"",""img/Fire_Down_Distractor.gif"",""img/Fire_Down_Distractor.gif"",""img/Fire_Down_Distractor.gif"",""img/Fire_Down_Distractor.gif""]","6","targetUp_distractorsDown"
"","","","","","html-keyboard-response","142","471474","0.0-14.0-0.0-0.64","60d5f605483d5fe184fcaad8","619531dcf66c91622fa1b861","619599eadaff67e2d91f9efc","null","","null","","","","","main_T1_ITI","","","","",""
"","","","","","visual-search-circle","143","474276","0.0-14.0-0.0-1.64","60d5f605483d5fe184fcaad8","619531dcf66c91622fa1b861","619599eadaff67e2d91f9efc","1796.699999988079","","s","true","[[367,7],[113,64],[0,299],[112,534],[366,592],[569,430],[570,170]]","false","7","main_T2_Trial","s","img/Fire_Up_Target.gif","[""img/Fire_Down_Distractor.gif"",""img/Fire_Down_Distractor.gif"",""img/Fire_Down_Distractor.gif"",""img/Fire_Down_Distractor.gif"",""img/Fire_Down_Distractor.gif"",""img/Fire_Down_Distractor.gif"",""img/Fire_Down_Distractor.gif"",""img/Fire_Down_Distractor.gif"",""img/Fire_Down_Distractor.gif"",""img/Fire_Down_Distractor.gif"",""img/Fire_Down_Distractor.gif"",""img/Fire_Down_Distractor.gif""]","7","targetUp_distractorsDown"
"","","","","","html-keyboard-response","144","474279","0.0-14.0-0.0-0.65","60d5f605483d5fe184fcaad8","619531dcf66c91622fa1b861","619599eadaff67e2d91f9efc","null","","null","","","","","main_T1_ITI","","","","",""
"","","","","","visual-search-circle","145","477302","0.0-14.0-0.0-1.65","60d5f605483d5fe184fcaad8","619531dcf66c91622fa1b861","619599eadaff67e2d91f9efc","2020.1000000238419","","s","false","[[45,458],[310,599],[564,440],[554,141],[289,0],[35,159]]","true","6","main_T2_Trial","d","img/Fire_Down_Target.gif","[""img/Fire_Up_Distractor.gif"",""img/Fire_Up_Distractor.gif"",""img/Fire_Up_Distractor.gif"",""img/Fire_Up_Distractor.gif"",""img/Fire_Up_Distractor.gif"",""img/Fire_Up_Distractor.gif"",""img/Fire_Up_Distractor.gif"",""img/Fire_Up_Distractor.gif"",""img/Fire_Up_Distractor.gif"",""img/Fire_Up_Distractor.gif"",""img/Fire_Up_Distractor.gif"",""img/Fire_Up_Distractor.gif""]","6","targetDown_distractorsUp"
"","","","","","html-keyboard-response","146","477305","0.0-14.0-0.0-0.66","60d5f605483d5fe184fcaad8","619531dcf66c91622fa1b861","619599eadaff67e2d91f9efc","null","","null","","","","","main_T1_ITI","","","","",""
"","","","","","visual-search-circle","147","480197","0.0-14.0-0.0-1.66","60d5f605483d5fe184fcaad8","619531dcf66c91622fa1b861","619599eadaff67e2d91f9efc","1888","","s","true","[[480,60],[258,2],[60,119],[2,341],[119,539],[341,597],[539,480],[597,258]]","false","8","main_T2_Trial","s","img/Fire_Down_Target.gif","[""img/Fire_Up_Distractor.gif"",""img/Fire_Up_Distractor.gif"",""img/Fire_Up_Distractor.gif"",""img/Fire_Up_Distractor.gif"",""img/Fire_Up_Distractor.gif"",""img/Fire_Up_Distractor.gif"",""img/Fire_Up_Distractor.gif"",""img/Fire_Up_Distractor.gif"",""img/Fire_Up_Distractor.gif"",""img/Fire_Up_Distractor.gif"",""img/Fire_Up_Distractor.gif"",""img/Fire_Up_Distractor.gif""]","8","targetDown_distractorsUp"
"","","","","","html-keyboard-response","148","480199","0.0-14.0-0.0-0.67","60d5f605483d5fe184fcaad8","619531dcf66c91622fa1b861","619599eadaff67e2d91f9efc","null","","null","","","","","main_T1_ITI","","","","",""
"","","","","","visual-search-circle","149","483350","0.0-14.0-0.0-1.67","60d5f605483d5fe184fcaad8","619531dcf66c91622fa1b861","619599eadaff67e2d91f9efc","2146.100000023842","","s","true","[[14,392],[163,567],[392,585],[567,436],[585,207],[436,32],[207,14],[32,163]]","false","8","main_T2_Trial","s","img/Fire_Up_Target.gif","[""img/Fire_Down_Distractor.gif"",""img/Fire_Down_Distractor.gif"",""img/Fire_Down_Distractor.gif"",""img/Fire_Down_Distractor.gif"",""img/Fire_Down_Distractor.gif"",""img/Fire_Down_Distractor.gif"",""img/Fire_Down_Distractor.gif"",""img/Fire_Down_Distractor.gif"",""img/Fire_Down_Distractor.gif"",""img/Fire_Down_Distractor.gif"",""img/Fire_Down_Distractor.gif"",""img/Fire_Down_Distractor.gif""]","8","targetUp_distractorsDown"
"","","","","","html-keyboard-response","150","483353","0.0-14.0-0.0-0.68","60d5f605483d5fe184fcaad8","619531dcf66c91622fa1b861","619599eadaff67e2d91f9efc","null","","null","","","","","main_T1_ITI","","","","",""
"","","","","","visual-search-circle","151","486874","0.0-14.0-0.0-1.68","60d5f605483d5fe184fcaad8","619531dcf66c91622fa1b861","619599eadaff67e2d91f9efc","2518.800000011921","","s","true","[[581,402],[402,18],[18,197],[197,581]]","false","4","main_T2_Trial","s","img/Fire_Up_Target.gif","[""img/Fire_Down_Distractor.gif"",""img/Fire_Down_Distractor.gif"",""img/Fire_Down_Distractor.gif"",""img/Fire_Down_Distractor.gif"",""img/Fire_Down_Distractor.gif"",""img/Fire_Down_Distractor.gif"",""img/Fire_Down_Distractor.gif"",""img/Fire_Down_Distractor.gif"",""img/Fire_Down_Distractor.gif"",""img/Fire_Down_Distractor.gif"",""img/Fire_Down_Distractor.gif"",""img/Fire_Down_Distractor.gif""]","4","targetUp_distractorsDown"
"","","","","","html-keyboard-response","152","486877","0.0-14.0-0.0-0.69","60d5f605483d5fe184fcaad8","619531dcf66c91622fa1b861","619599eadaff67e2d91f9efc","null","","null","","","","","main_T1_ITI","","","","",""
"","","","","","visual-search-circle","153","489500","0.0-14.0-0.0-1.69","60d5f605483d5fe184fcaad8","619531dcf66c91622fa1b861","619599eadaff67e2d91f9efc","1619.5","","s","true","[[0,305],[154,562],[454,557],[599,294],[445,37],[145,42]]","false","6","main_T2_Trial","s","img/Fire_Up_Target.gif","[""img/Fire_Down_Distractor.gif"",""img/Fire_Down_Distractor.gif"",""img/Fire_Down_Distractor.gif"",""img/Fire_Down_Distractor.gif"",""img/Fire_Down_Distractor.gif"",""img/Fire_Down_Distractor.gif"",""img/Fire_Down_Distractor.gif"",""img/Fire_Down_Distractor.gif"",""img/Fire_Down_Distractor.gif"",""img/Fire_Down_Distractor.gif"",""img/Fire_Down_Distractor.gif"",""img/Fire_Down_Distractor.gif""]","6","targetUp_distractorsDown"
"","","","","","html-keyboard-response","154","489503","0.0-14.0-0.0-0.70","60d5f605483d5fe184fcaad8","619531dcf66c91622fa1b861","619599eadaff67e2d91f9efc","null","","null","","","","","main_T1_ITI","","","","",""
"","","","","","visual-search-circle","155","492573","0.0-14.0-0.0-1.70","60d5f605483d5fe184fcaad8","619531dcf66c91622fa1b861","619599eadaff67e2d91f9efc","2067","","d","true","[[559,150],[344,3],[95,80],[0,322],[131,547],[388,586],[579,409]]","true","7","main_T2_Trial","d","img/Fire_Down_Target.gif","[""img/Fire_Up_Distractor.gif"",""img/Fire_Up_Distractor.gif"",""img/Fire_Up_Distractor.gif"",""img/Fire_Up_Distractor.gif"",""img/Fire_Up_Distractor.gif"",""img/Fire_Up_Distractor.gif"",""img/Fire_Up_Distractor.gif"",""img/Fire_Up_Distractor.gif"",""img/Fire_Up_Distractor.gif"",""img/Fire_Up_Distractor.gif"",""img/Fire_Up_Distractor.gif"",""img/Fire_Up_Distractor.gif""]","7","targetDown_distractorsUp"
"","","","","","html-keyboard-response","156","492580","0.0-14.0-0.0-0.71","60d5f605483d5fe184fcaad8","619531dcf66c91622fa1b861","619599eadaff67e2d91f9efc","null","","null","","","","","main_T1_ITI","","","","",""
"","","","","","visual-search-circle","157","495383","0.0-14.0-0.0-1.71","60d5f605483d5fe184fcaad8","619531dcf66c91622fa1b861","619599eadaff67e2d91f9efc","1801.300000011921","","s","false","[[23,182],[182,576],[576,417],[417,23]]","true","4","main_T2_Trial","d","img/Fire_Down_Target.gif","[""img/Fire_Up_Distractor.gif"",""img/Fire_Up_Distractor.gif"",""img/Fire_Up_Distractor.gif"",""img/Fire_Up_Distractor.gif"",""img/Fire_Up_Distractor.gif"",""img/Fire_Up_Distractor.gif"",""img/Fire_Up_Distractor.gif"",""img/Fire_Up_Distractor.gif"",""img/Fire_Up_Distractor.gif"",""img/Fire_Up_Distractor.gif"",""img/Fire_Up_Distractor.gif"",""img/Fire_Up_Distractor.gif""]","4","targetDown_distractorsUp"
"","","","","","html-keyboard-response","158","495386","0.0-14.0-0.0-0.72","60d5f605483d5fe184fcaad8","619531dcf66c91622fa1b861","619599eadaff67e2d91f9efc","null","","null","","","","","main_T1_ITI","","","","",""
"","","","","","visual-search-circle","159","498429","0.0-14.0-0.0-1.72","60d5f605483d5fe184fcaad8","619531dcf66c91622fa1b861","619599eadaff67e2d91f9efc","2038.5999999642372","","s","true","[[99,522],[349,595],[562,446],[577,186],[384,12],[127,54],[0,282]]","false","7","main_T2_Trial","s","img/Fire_Up_Target.gif","[""img/Fire_Down_Distractor.gif"",""img/Fire_Down_Distractor.gif"",""img/Fire_Down_Distractor.gif"",""img/Fire_Down_Distractor.gif"",""img/Fire_Down_Distractor.gif"",""img/Fire_Down_Distractor.gif"",""img/Fire_Down_Distractor.gif"",""img/Fire_Down_Distractor.gif"",""img/Fire_Down_Distractor.gif"",""img/Fire_Down_Distractor.gif"",""img/Fire_Down_Distractor.gif"",""img/Fire_Down_Distractor.gif""]","7","targetUp_distractorsDown"
"","","","","","html-keyboard-response","160","498431","0.0-14.0-0.0-0.73","60d5f605483d5fe184fcaad8","619531dcf66c91622fa1b861","619599eadaff67e2d91f9efc","null","","null","","","","","main_T1_ITI","","","","",""
"","","","","","visual-search-circle","161","501225","0.0-14.0-0.0-1.73","60d5f605483d5fe184fcaad8","619531dcf66c91622fa1b861","619599eadaff67e2d91f9efc","1788.5","","s","true","[[599,320],[526,103],[320,0],[103,73],[0,279],[73,496],[279,599],[496,526]]","false","8","main_T2_Trial","s","img/Fire_Down_Target.gif","[""img/Fire_Up_Distractor.gif"",""img/Fire_Up_Distractor.gif"",""img/Fire_Up_Distractor.gif"",""img/Fire_Up_Distractor.gif"",""img/Fire_Up_Distractor.gif"",""img/Fire_Up_Distractor.gif"",""img/Fire_Up_Distractor.gif"",""img/Fire_Up_Distractor.gif"",""img/Fire_Up_Distractor.gif"",""img/Fire_Up_Distractor.gif"",""img/Fire_Up_Distractor.gif"",""img/Fire_Up_Distractor.gif""]","8","targetDown_distractorsUp"
"","","","","","html-keyboard-response","162","501229","0.0-14.0-0.0-0.74","60d5f605483d5fe184fcaad8","619531dcf66c91622fa1b861","619599eadaff67e2d91f9efc","null","","null","","","","","main_T1_ITI","","","","",""
"","","","","","visual-search-circle","163","504396","0.0-14.0-0.0-1.74","60d5f605483d5fe184fcaad8","619531dcf66c91622fa1b861","619599eadaff67e2d91f9efc","2164.600000023842","","s","true","[[382,11],[11,217],[217,588],[588,382]]","false","4","main_T2_Trial","s","img/Fire_Down_Target.gif","[""img/Fire_Up_Distractor.gif"",""img/Fire_Up_Distractor.gif"",""img/Fire_Up_Distractor.gif"",""img/Fire_Up_Distractor.gif"",""img/Fire_Up_Distractor.gif"",""img/Fire_Up_Distractor.gif"",""img/Fire_Up_Distractor.gif"",""img/Fire_Up_Distractor.gif"",""img/Fire_Up_Distractor.gif"",""img/Fire_Up_Distractor.gif"",""img/Fire_Up_Distractor.gif"",""img/Fire_Up_Distractor.gif""]","4","targetDown_distractorsUp"
"","","","","","html-keyboard-response","164","504398","0.0-14.0-0.0-0.75","60d5f605483d5fe184fcaad8","619531dcf66c91622fa1b861","619599eadaff67e2d91f9efc","null","","null","","","","","main_T1_ITI","","","","",""
"","","","","","visual-search-circle","165","507477","0.0-14.0-0.0-1.75","60d5f605483d5fe184fcaad8","619531dcf66c91622fa1b861","619599eadaff67e2d91f9efc","2074.600000023842","","s","true","[[0,310],[95,519],[310,599],[519,504],[599,289],[504,80],[289,0],[80,95]]","false","8","main_T2_Trial","s","img/Fire_Up_Target.gif","[""img/Fire_Down_Distractor.gif"",""img/Fire_Down_Distractor.gif"",""img/Fire_Down_Distractor.gif"",""img/Fire_Down_Distractor.gif"",""img/Fire_Down_Distractor.gif"",""img/Fire_Down_Distractor.gif"",""img/Fire_Down_Distractor.gif"",""img/Fire_Down_Distractor.gif"",""img/Fire_Down_Distractor.gif"",""img/Fire_Down_Distractor.gif"",""img/Fire_Down_Distractor.gif"",""img/Fire_Down_Distractor.gif""]","8","targetUp_distractorsDown"
"","","","","","html-keyboard-response","166","507479","0.0-14.0-0.0-0.76","60d5f605483d5fe184fcaad8","619531dcf66c91622fa1b861","619599eadaff67e2d91f9efc","null","","null","","","","","main_T1_ITI","","","","",""
"","","","","","visual-search-circle","167","509515","0.0-14.0-0.0-1.76","60d5f605483d5fe184fcaad8","619531dcf66c91622fa1b861","619599eadaff67e2d91f9efc","1032.0999999642372","","d","true","[[99,522],[392,585],[593,362],[500,77],[207,14],[6,237]]","true","6","main_T2_Trial","d","img/Fire_Up_Target.gif","[""img/Fire_Down_Distractor.gif"",""img/Fire_Down_Distractor.gif"",""img/Fire_Down_Distractor.gif"",""img/Fire_Down_Distractor.gif"",""img/Fire_Down_Distractor.gif"",""img/Fire_Down_Distractor.gif"",""img/Fire_Down_Distractor.gif"",""img/Fire_Down_Distractor.gif"",""img/Fire_Down_Distractor.gif"",""img/Fire_Down_Distractor.gif"",""img/Fire_Down_Distractor.gif"",""img/Fire_Down_Distractor.gif""]","6","targetUp_distractorsDown"
"","","","","","html-keyboard-response","168","509517","0.0-14.0-0.0-0.77","60d5f605483d5fe184fcaad8","619531dcf66c91622fa1b861","619599eadaff67e2d91f9efc","null","","null","","","","","main_T1_ITI","","","","",""
"","","","","","visual-search-circle","169","511872","0.0-14.0-0.0-1.77","60d5f605483d5fe184fcaad8","619531dcf66c91622fa1b861","619599eadaff67e2d91f9efc","1351","","s","true","[[585,207],[405,19],[146,42],[2,259],[83,507],[326,598],[550,465]]","false","7","main_T2_Trial","s","img/Fire_Down_Target.gif","[""img/Fire_Up_Distractor.gif"",""img/Fire_Up_Distractor.gif"",""img/Fire_Up_Distractor.gif"",""img/Fire_Up_Distractor.gif"",""img/Fire_Up_Distractor.gif"",""img/Fire_Up_Distractor.gif"",""img/Fire_Up_Distractor.gif"",""img/Fire_Up_Distractor.gif"",""img/Fire_Up_Distractor.gif"",""img/Fire_Up_Distractor.gif"",""img/Fire_Up_Distractor.gif"",""img/Fire_Up_Distractor.gif""]","7","targetDown_distractorsUp"
"","","","","","html-keyboard-response","170","511875","0.0-14.0-0.0-0.78","60d5f605483d5fe184fcaad8","619531dcf66c91622fa1b861","619599eadaff67e2d91f9efc","null","","null","","","","","main_T1_ITI","","","","",""
"","","","","","visual-search-circle","171","513879","0.0-14.0-0.0-1.78","60d5f605483d5fe184fcaad8","619531dcf66c91622fa1b861","619599eadaff67e2d91f9efc","1000.3999999761581","","d","true","[[57,476],[392,585],[600,300],[392,14],[57,123]]","true","5","main_T2_Trial","d","img/Fire_Down_Target.gif","[""img/Fire_Up_Distractor.gif"",""img/Fire_Up_Distractor.gif"",""img/Fire_Up_Distractor.gif"",""img/Fire_Up_Distractor.gif"",""img/Fire_Up_Distractor.gif"",""img/Fire_Up_Distractor.gif"",""img/Fire_Up_Distractor.gif"",""img/Fire_Up_Distractor.gif"",""img/Fire_Up_Distractor.gif"",""img/Fire_Up_Distractor.gif"",""img/Fire_Up_Distractor.gif"",""img/Fire_Up_Distractor.gif""]","5","targetDown_distractorsUp"
"","","","","","html-keyboard-response","172","516174","0.0-14.0-0.0-0.79","60d5f605483d5fe184fcaad8","619531dcf66c91622fa1b861","619599eadaff67e2d91f9efc","2294.599999964237","Wow! You've completed 80 out of 160 trials! </p> <p>  </p><p> Take a quick break, then press any key when you're ready to continue.","s","","","","","main_T1_ITI","","","","",""
"","","","","","visual-search-circle","173","518471","0.0-14.0-0.0-1.79","60d5f605483d5fe184fcaad8","619531dcf66c91622fa1b861","619599eadaff67e2d91f9efc","1294.6000000238419","","s","true","[[519,504],[504,80],[80,95],[95,519]]","false","4","main_T2_Trial","s","img/Fire_Down_Target.gif","[""img/Fire_Up_Distractor.gif"",""img/Fire_Up_Distractor.gif"",""img/Fire_Up_Distractor.gif"",""img/Fire_Up_Distractor.gif"",""img/Fire_Up_Distractor.gif"",""img/Fire_Up_Distractor.gif"",""img/Fire_Up_Distractor.gif"",""img/Fire_Up_Distractor.gif"",""img/Fire_Up_Distractor.gif"",""img/Fire_Up_Distractor.gif"",""img/Fire_Up_Distractor.gif"",""img/Fire_Up_Distractor.gif""]","4","targetDown_distractorsUp"
"","","","","","html-keyboard-response","174","518476","0.0-14.0-0.0-0.80","60d5f605483d5fe184fcaad8","619531dcf66c91622fa1b861","619599eadaff67e2d91f9efc","null","","null","","","","","main_T1_ITI","","","","",""
"","","","","","visual-search-circle","175","521309","0.0-14.0-0.0-1.80","60d5f605483d5fe184fcaad8","619531dcf66c91622fa1b861","619599eadaff67e2d91f9efc","1829.800000011921","","s","false","[[554,141],[289,0],[35,159],[45,458],[310,599],[564,440]]","true","6","main_T2_Trial","d","img/Fire_Up_Target.gif","[""img/Fire_Down_Distractor.gif"",""img/Fire_Down_Distractor.gif"",""img/Fire_Down_Distractor.gif"",""img/Fire_Down_Distractor.gif"",""img/Fire_Down_Distractor.gif"",""img/Fire_Down_Distractor.gif"",""img/Fire_Down_Distractor.gif"",""img/Fire_Down_Distractor.gif"",""img/Fire_Down_Distractor.gif"",""img/Fire_Down_Distractor.gif"",""img/Fire_Down_Distractor.gif"",""img/Fire_Down_Distractor.gif""]","6","targetUp_distractorsDown"
"","","","","","html-keyboard-response","176","521310","0.0-14.0-0.0-0.81","60d5f605483d5fe184fcaad8","619531dcf66c91622fa1b861","619599eadaff67e2d91f9efc","null","","null","","","","","main_T1_ITI","","","","",""
"","","","","","visual-search-circle","177","523958","0.0-14.0-0.0-1.81","60d5f605483d5fe184fcaad8","619531dcf66c91622fa1b861","619599eadaff67e2d91f9efc","1643.8999999761581","","d","true","[[445,37],[185,22],[11,216],[55,473],[282,599],[523,500],[595,250]]","true","7","main_T2_Trial","d","img/Fire_Down_Target.gif","[""img/Fire_Up_Distractor.gif"",""img/Fire_Up_Distractor.gif"",""img/Fire_Up_Distractor.gif"",""img/Fire_Up_Distractor.gif"",""img/Fire_Up_Distractor.gif"",""img/Fire_Up_Distractor.gif"",""img/Fire_Up_Distractor.gif"",""img/Fire_Up_Distractor.gif"",""img/Fire_Up_Distractor.gif"",""img/Fire_Up_Distractor.gif"",""img/Fire_Up_Distractor.gif"",""img/Fire_Up_Distractor.gif""]","7","targetDown_distractorsUp"
"","","","","","html-keyboard-response","178","523960","0.0-14.0-0.0-0.82","60d5f605483d5fe184fcaad8","619531dcf66c91622fa1b861","619599eadaff67e2d91f9efc","null","","null","","","","","main_T1_ITI","","","","",""
"","","","","","visual-search-circle","179","526335","0.0-14.0-0.0-1.82","60d5f605483d5fe184fcaad8","619531dcf66c91622fa1b861","619599eadaff67e2d91f9efc","1370.6000000238419","","d","true","[[57,476],[253,596],[476,542],[596,346],[542,123],[346,3],[123,57],[3,253]]","true","8","main_T2_Trial","d","img/Fire_Up_Target.gif","[""img/Fire_Down_Distractor.gif"",""img/Fire_Down_Distractor.gif"",""img/Fire_Down_Distractor.gif"",""img/Fire_Down_Distractor.gif"",""img/Fire_Down_Distractor.gif"",""img/Fire_Down_Distractor.gif"",""img/Fire_Down_Distractor.gif"",""img/Fire_Down_Distractor.gif"",""img/Fire_Down_Distractor.gif"",""img/Fire_Down_Distractor.gif"",""img/Fire_Down_Distractor.gif"",""img/Fire_Down_Distractor.gif""]","8","targetUp_distractorsDown"
"","","","","","html-keyboard-response","180","526338","0.0-14.0-0.0-0.83","60d5f605483d5fe184fcaad8","619531dcf66c91622fa1b861","619599eadaff67e2d91f9efc","null","","null","","","","","main_T1_ITI","","","","",""
"","","","","","visual-search-circle","181","528494","0.0-14.0-0.0-1.83","60d5f605483d5fe184fcaad8","619531dcf66c91622fa1b861","619599eadaff67e2d91f9efc","1152.1000000238419","","s","true","[[581,197],[395,15],[137,47],[1,270],[90,514],[337,597],[555,456]]","false","7","main_T2_Trial","s","img/Fire_Up_Target.gif","[""img/Fire_Down_Distractor.gif"",""img/Fire_Down_Distractor.gif"",""img/Fire_Down_Distractor.gif"",""img/Fire_Down_Distractor.gif"",""img/Fire_Down_Distractor.gif"",""img/Fire_Down_Distractor.gif"",""img/Fire_Down_Distractor.gif"",""img/Fire_Down_Distractor.gif"",""img/Fire_Down_Distractor.gif"",""img/Fire_Down_Distractor.gif"",""img/Fire_Down_Distractor.gif"",""img/Fire_Down_Distractor.gif""]","7","targetUp_distractorsDown"
"","","","","","html-keyboard-response","182","528497","0.0-14.0-0.0-0.84","60d5f605483d5fe184fcaad8","619531dcf66c91622fa1b861","619599eadaff67e2d91f9efc","null","","null","","","","","main_T1_ITI","","","","",""
"","","","","","visual-search-circle","183","530459","0.0-14.0-0.0-1.84","60d5f605483d5fe184fcaad8","619531dcf66c91622fa1b861","619599eadaff67e2d91f9efc","960.5","","d","true","[[19,192],[192,580],[580,407],[407,19]]","true","4","main_T2_Trial","d","img/Fire_Up_Target.gif","[""img/Fire_Down_Distractor.gif"",""img/Fire_Down_Distractor.gif"",""img/Fire_Down_Distractor.gif"",""img/Fire_Down_Distractor.gif"",""img/Fire_Down_Distractor.gif"",""img/Fire_Down_Distractor.gif"",""img/Fire_Down_Distractor.gif"",""img/Fire_Down_Distractor.gif"",""img/Fire_Down_Distractor.gif"",""img/Fire_Down_Distractor.gif"",""img/Fire_Down_Distractor.gif"",""img/Fire_Down_Distractor.gif""]","4","targetUp_distractorsDown"
"","","","","","html-keyboard-response","184","530467","0.0-14.0-0.0-0.85","60d5f605483d5fe184fcaad8","619531dcf66c91622fa1b861","619599eadaff67e2d91f9efc","null","","null","","","","","main_T1_ITI","","","","",""
"","","","","","visual-search-circle","185","532748","0.0-14.0-0.0-1.85","60d5f605483d5fe184fcaad8","619531dcf66c91622fa1b861","619599eadaff67e2d91f9efc","1276.3999999761581","","s","false","[[598,331],[533,111],[331,1],[111,66],[1,268],[66,488],[268,598],[488,533]]","true","8","main_T2_Trial","d","img/Fire_Up_Target.gif","[""img/Fire_Down_Distractor.gif"",""img/Fire_Down_Distractor.gif"",""img/Fire_Down_Distractor.gif"",""img/Fire_Down_Distractor.gif"",""img/Fire_Down_Distractor.gif"",""img/Fire_Down_Distractor.gif"",""img/Fire_Down_Distractor.gif"",""img/Fire_Down_Distractor.gif"",""img/Fire_Down_Distractor.gif"",""img/Fire_Down_Distractor.gif"",""img/Fire_Down_Distractor.gif"",""img/Fire_Down_Distractor.gif""]","8","targetUp_distractorsDown"
"","","","","","html-keyboard-response","186","532755","0.0-14.0-0.0-0.86","60d5f605483d5fe184fcaad8","619531dcf66c91622fa1b861","619599eadaff67e2d91f9efc","null","","null","","","","","main_T1_ITI","","","","",""
"","","","","","visual-search-circle","187","536145","0.0-14.0-0.0-1.86","60d5f605483d5fe184fcaad8","619531dcf66c91622fa1b861","619599eadaff67e2d91f9efc","2388.399999976158","","s","false","[[331,1],[1,268],[268,598],[598,331]]","true","4","main_T2_Trial","d","img/Fire_Up_Target.gif","[""img/Fire_Down_Distractor.gif"",""img/Fire_Down_Distractor.gif"",""img/Fire_Down_Distractor.gif"",""img/Fire_Down_Distractor.gif"",""img/Fire_Down_Distractor.gif"",""img/Fire_Down_Distractor.gif"",""img/Fire_Down_Distractor.gif"",""img/Fire_Down_Distractor.gif"",""img/Fire_Down_Distractor.gif"",""img/Fire_Down_Distractor.gif"",""img/Fire_Down_Distractor.gif"",""img/Fire_Down_Distractor.gif""]","4","targetUp_distractorsDown"
"","","","","","html-keyboard-response","188","536148","0.0-14.0-0.0-0.87","60d5f605483d5fe184fcaad8","619531dcf66c91622fa1b861","619599eadaff67e2d91f9efc","null","","null","","","","","main_T1_ITI","","","","",""
"","","","","","visual-search-circle","189","538328","0.0-14.0-0.0-1.87","60d5f605483d5fe184fcaad8","619531dcf66c91622fa1b861","619599eadaff67e2d91f9efc","1176.5999999642372","","s","true","[[273,1],[28,173],[54,472],[326,598],[571,426],[545,127]]","false","6","main_T2_Trial","s","img/Fire_Down_Target.gif","[""img/Fire_Up_Distractor.gif"",""img/Fire_Up_Distractor.gif"",""img/Fire_Up_Distractor.gif"",""img/Fire_Up_Distractor.gif"",""img/Fire_Up_Distractor.gif"",""img/Fire_Up_Distractor.gif"",""img/Fire_Up_Distractor.gif"",""img/Fire_Up_Distractor.gif"",""img/Fire_Up_Distractor.gif"",""img/Fire_Up_Distractor.gif"",""img/Fire_Up_Distractor.gif"",""img/Fire_Up_Distractor.gif""]","6","targetDown_distractorsUp"
"","","","","","html-keyboard-response","190","538330","0.0-14.0-0.0-0.88","60d5f605483d5fe184fcaad8","619531dcf66c91622fa1b861","619599eadaff67e2d91f9efc","null","","null","","","","","main_T1_ITI","","","","",""
"","","","","","visual-search-circle","191","540752","0.0-14.0-0.0-1.88","60d5f605483d5fe184fcaad8","619531dcf66c91622fa1b861","619599eadaff67e2d91f9efc","1418.300000011921","","s","true","[[571,426],[545,127],[273,1],[28,173],[54,472],[326,598]]","false","6","main_T2_Trial","s","img/Fire_Down_Target.gif","[""img/Fire_Up_Distractor.gif"",""img/Fire_Up_Distractor.gif"",""img/Fire_Up_Distractor.gif"",""img/Fire_Up_Distractor.gif"",""img/Fire_Up_Distractor.gif"",""img/Fire_Up_Distractor.gif"",""img/Fire_Up_Distractor.gif"",""img/Fire_Up_Distractor.gif"",""img/Fire_Up_Distractor.gif"",""img/Fire_Up_Distractor.gif"",""img/Fire_Up_Distractor.gif"",""img/Fire_Up_Distractor.gif""]","6","targetDown_distractorsUp"
"","","","","","html-keyboard-response","192","540754","0.0-14.0-0.0-0.89","60d5f605483d5fe184fcaad8","619531dcf66c91622fa1b861","619599eadaff67e2d91f9efc","null","","null","","","","","main_T1_ITI","","","","",""
"","","","","","visual-search-circle","193","543054","0.0-14.0-0.0-1.89","60d5f605483d5fe184fcaad8","619531dcf66c91622fa1b861","619599eadaff67e2d91f9efc","1295.5999999642372","","s","true","[[571,173],[370,8],[115,63],[0,296],[110,532],[363,593],[568,433]]","false","7","main_T2_Trial","s","img/Fire_Up_Target.gif","[""img/Fire_Down_Distractor.gif"",""img/Fire_Down_Distractor.gif"",""img/Fire_Down_Distractor.gif"",""img/Fire_Down_Distractor.gif"",""img/Fire_Down_Distractor.gif"",""img/Fire_Down_Distractor.gif"",""img/Fire_Down_Distractor.gif"",""img/Fire_Down_Distractor.gif"",""img/Fire_Down_Distractor.gif"",""img/Fire_Down_Distractor.gif"",""img/Fire_Down_Distractor.gif"",""img/Fire_Down_Distractor.gif""]","7","targetUp_distractorsDown"
"","","","","","html-keyboard-response","194","543056","0.0-14.0-0.0-0.90","60d5f605483d5fe184fcaad8","619531dcf66c91622fa1b861","619599eadaff67e2d91f9efc","null","","null","","","","","main_T1_ITI","","","","",""
"","","","","","visual-search-circle","195","545222","0.0-14.0-0.0-1.90","60d5f605483d5fe184fcaad8","619531dcf66c91622fa1b861","619599eadaff67e2d91f9efc","1162.300000011921","","s","true","[[54,472],[326,598],[571,426],[545,127],[273,1],[28,173]]","false","6","main_T2_Trial","s","img/Fire_Down_Target.gif","[""img/Fire_Up_Distractor.gif"",""img/Fire_Up_Distractor.gif"",""img/Fire_Up_Distractor.gif"",""img/Fire_Up_Distractor.gif"",""img/Fire_Up_Distractor.gif"",""img/Fire_Up_Distractor.gif"",""img/Fire_Up_Distractor.gif"",""img/Fire_Up_Distractor.gif"",""img/Fire_Up_Distractor.gif"",""img/Fire_Up_Distractor.gif"",""img/Fire_Up_Distractor.gif"",""img/Fire_Up_Distractor.gif""]","6","targetDown_distractorsUp"
"","","","","","html-keyboard-response","196","545225","0.0-14.0-0.0-0.91","60d5f605483d5fe184fcaad8","619531dcf66c91622fa1b861","619599eadaff67e2d91f9efc","null","","null","","","","","main_T1_ITI","","","","",""
"","","","","","visual-search-circle","197","547350","0.0-14.0-0.0-1.91","60d5f605483d5fe184fcaad8","619531dcf66c91622fa1b861","619599eadaff67e2d91f9efc","1120.3999999761581","","s","true","[[588,217],[415,22],[155,37],[4,249],[76,499],[316,599],[544,473]]","false","7","main_T2_Trial","s","img/Fire_Down_Target.gif","[""img/Fire_Up_Distractor.gif"",""img/Fire_Up_Distractor.gif"",""img/Fire_Up_Distractor.gif"",""img/Fire_Up_Distractor.gif"",""img/Fire_Up_Distractor.gif"",""img/Fire_Up_Distractor.gif"",""img/Fire_Up_Distractor.gif"",""img/Fire_Up_Distractor.gif"",""img/Fire_Up_Distractor.gif"",""img/Fire_Up_Distractor.gif"",""img/Fire_Up_Distractor.gif"",""img/Fire_Up_Distractor.gif""]","7","targetDown_distractorsUp"
"","","","","","html-keyboard-response","198","547352","0.0-14.0-0.0-0.92","60d5f605483d5fe184fcaad8","619531dcf66c91622fa1b861","619599eadaff67e2d91f9efc","null","","null","","","","","main_T1_ITI","","","","",""
"","","","","","visual-search-circle","199","549685","0.0-14.0-0.0-1.92","60d5f605483d5fe184fcaad8","619531dcf66c91622fa1b861","619599eadaff67e2d91f9efc","1330","","s","true","[[326,1],[23,182],[103,526],[454,557],[592,232]]","false","5","main_T2_Trial","s","img/Fire_Up_Target.gif","[""img/Fire_Down_Distractor.gif"",""img/Fire_Down_Distractor.gif"",""img/Fire_Down_Distractor.gif"",""img/Fire_Down_Distractor.gif"",""img/Fire_Down_Distractor.gif"",""img/Fire_Down_Distractor.gif"",""img/Fire_Down_Distractor.gif"",""img/Fire_Down_Distractor.gif"",""img/Fire_Down_Distractor.gif"",""img/Fire_Down_Distractor.gif"",""img/Fire_Down_Distractor.gif"",""img/Fire_Down_Distractor.gif""]","5","targetUp_distractorsDown"
"","","","","","html-keyboard-response","200","549687","0.0-14.0-0.0-0.93","60d5f605483d5fe184fcaad8","619531dcf66c91622fa1b861","619599eadaff67e2d91f9efc","null","","null","","","","","main_T1_ITI","","","","",""
"","","","","","visual-search-circle","201","552823","0.0-14.0-0.0-1.93","60d5f605483d5fe184fcaad8","619531dcf66c91622fa1b861","619599eadaff67e2d91f9efc","2131.899999976158","","s","false","[[222,589],[478,541],[599,311],[495,72],[244,5],[34,159],[25,419]]","true","7","main_T2_Trial","d","img/Fire_Down_Target.gif","[""img/Fire_Up_Distractor.gif"",""img/Fire_Up_Distractor.gif"",""img/Fire_Up_Distractor.gif"",""img/Fire_Up_Distractor.gif"",""img/Fire_Up_Distractor.gif"",""img/Fire_Up_Distractor.gif"",""img/Fire_Up_Distractor.gif"",""img/Fire_Up_Distractor.gif"",""img/Fire_Up_Distractor.gif"",""img/Fire_Up_Distractor.gif"",""img/Fire_Up_Distractor.gif"",""img/Fire_Up_Distractor.gif""]","7","targetDown_distractorsUp"
"","","","","","html-keyboard-response","202","552833","0.0-14.0-0.0-0.94","60d5f605483d5fe184fcaad8","619531dcf66c91622fa1b861","619599eadaff67e2d91f9efc","null","","null","","","","","main_T1_ITI","","","","",""
"","","","","","visual-search-circle","203","555325","0.0-14.0-0.0-1.94","60d5f605483d5fe184fcaad8","619531dcf66c91622fa1b861","619599eadaff67e2d91f9efc","1487.699999988079","","d","true","[[45,458],[232,592],[458,554],[592,367],[554,141],[367,7],[141,45],[7,232]]","true","8","main_T2_Trial","d","img/Fire_Up_Target.gif","[""img/Fire_Down_Distractor.gif"",""img/Fire_Down_Distractor.gif"",""img/Fire_Down_Distractor.gif"",""img/Fire_Down_Distractor.gif"",""img/Fire_Down_Distractor.gif"",""img/Fire_Down_Distractor.gif"",""img/Fire_Down_Distractor.gif"",""img/Fire_Down_Distractor.gif"",""img/Fire_Down_Distractor.gif"",""img/Fire_Down_Distractor.gif"",""img/Fire_Down_Distractor.gif"",""img/Fire_Down_Distractor.gif""]","8","targetUp_distractorsDown"
"","","","","","html-keyboard-response","204","555327","0.0-14.0-0.0-0.95","60d5f605483d5fe184fcaad8","619531dcf66c91622fa1b861","619599eadaff67e2d91f9efc","null","","null","","","","","main_T1_ITI","","","","",""
"","","","","","visual-search-circle","205","557561","0.0-14.0-0.0-1.95","60d5f605483d5fe184fcaad8","619531dcf66c91622fa1b861","619599eadaff67e2d91f9efc","1230.8999999761581","","s","true","[[341,2],[63,115],[21,412],[258,597],[536,484],[578,187]]","false","6","main_T2_Trial","s","img/Fire_Up_Target.gif","[""img/Fire_Down_Distractor.gif"",""img/Fire_Down_Distractor.gif"",""img/Fire_Down_Distractor.gif"",""img/Fire_Down_Distractor.gif"",""img/Fire_Down_Distractor.gif"",""img/Fire_Down_Distractor.gif"",""img/Fire_Down_Distractor.gif"",""img/Fire_Down_Distractor.gif"",""img/Fire_Down_Distractor.gif"",""img/Fire_Down_Distractor.gif"",""img/Fire_Down_Distractor.gif"",""img/Fire_Down_Distractor.gif""]","6","targetUp_distractorsDown"
"","","","","","html-keyboard-response","206","557564","0.0-14.0-0.0-0.96","60d5f605483d5fe184fcaad8","619531dcf66c91622fa1b861","619599eadaff67e2d91f9efc","null","","null","","","","","main_T1_ITI","","","","",""
"","","","","","visual-search-circle","207","560775","0.0-14.0-0.0-1.96","60d5f605483d5fe184fcaad8","619531dcf66c91622fa1b861","619599eadaff67e2d91f9efc","2209.100000023842","","d","true","[[589,222],[222,10],[10,377],[377,589]]","true","4","main_T2_Trial","d","img/Fire_Down_Target.gif","[""img/Fire_Up_Distractor.gif"",""img/Fire_Up_Distractor.gif"",""img/Fire_Up_Distractor.gif"",""img/Fire_Up_Distractor.gif"",""img/Fire_Up_Distractor.gif"",""img/Fire_Up_Distractor.gif"",""img/Fire_Up_Distractor.gif"",""img/Fire_Up_Distractor.gif"",""img/Fire_Up_Distractor.gif"",""img/Fire_Up_Distractor.gif"",""img/Fire_Up_Distractor.gif"",""img/Fire_Up_Distractor.gif""]","4","targetDown_distractorsUp"
"","","","","","html-keyboard-response","208","560778","0.0-14.0-0.0-0.97","60d5f605483d5fe184fcaad8","619531dcf66c91622fa1b861","619599eadaff67e2d91f9efc","null","","null","","","","","main_T1_ITI","","","","",""
"","","","","","visual-search-circle","209","563731","0.0-14.0-0.0-1.97","60d5f605483d5fe184fcaad8","619531dcf66c91622fa1b861","619599eadaff67e2d91f9efc","1948.800000011921","","s","true","[[445,562],[595,349],[523,99],[282,0],[55,126],[11,383],[185,577]]","false","7","main_T2_Trial","s","img/Fire_Down_Target.gif","[""img/Fire_Up_Distractor.gif"",""img/Fire_Up_Distractor.gif"",""img/Fire_Up_Distractor.gif"",""img/Fire_Up_Distractor.gif"",""img/Fire_Up_Distractor.gif"",""img/Fire_Up_Distractor.gif"",""img/Fire_Up_Distractor.gif"",""img/Fire_Up_Distractor.gif"",""img/Fire_Up_Distractor.gif"",""img/Fire_Up_Distractor.gif"",""img/Fire_Up_Distractor.gif"",""img/Fire_Up_Distractor.gif""]","7","targetDown_distractorsUp"
"","","","","","html-keyboard-response","210","563733","0.0-14.0-0.0-0.98","60d5f605483d5fe184fcaad8","619531dcf66c91622fa1b861","619599eadaff67e2d91f9efc","null","","null","","","","","main_T1_ITI","","","","",""
"","","","","","visual-search-circle","211","566174","0.0-14.0-0.0-1.98","60d5f605483d5fe184fcaad8","619531dcf66c91622fa1b861","619599eadaff67e2d91f9efc","1438.300000011921","","s","true","[[567,436],[551,136],[284,0],[32,163],[48,463],[315,599]]","false","6","main_T2_Trial","s","img/Fire_Up_Target.gif","[""img/Fire_Down_Distractor.gif"",""img/Fire_Down_Distractor.gif"",""img/Fire_Down_Distractor.gif"",""img/Fire_Down_Distractor.gif"",""img/Fire_Down_Distractor.gif"",""img/Fire_Down_Distractor.gif"",""img/Fire_Down_Distractor.gif"",""img/Fire_Down_Distractor.gif"",""img/Fire_Down_Distractor.gif"",""img/Fire_Down_Distractor.gif"",""img/Fire_Down_Distractor.gif"",""img/Fire_Down_Distractor.gif""]","6","targetUp_distractorsDown"
"","","","","","html-keyboard-response","212","567192","0.0-14.0-0.0-0.99","60d5f605483d5fe184fcaad8","619531dcf66c91622fa1b861","619599eadaff67e2d91f9efc","1017.5","Wow! You've completed 100 out of 160 trials! </p> <p>  </p><p> Take a quick break, then press any key when you're ready to continue.","s","","","","","main_T1_ITI","","","","",""
"","","","","","visual-search-circle","213","569201","0.0-14.0-0.0-1.99","60d5f605483d5fe184fcaad8","619531dcf66c91622fa1b861","619599eadaff67e2d91f9efc","1004.5","","d","true","[[436,32],[136,48],[0,315],[163,567],[463,551],[599,284]]","true","6","main_T2_Trial","d","img/Fire_Down_Target.gif","[""img/Fire_Up_Distractor.gif"",""img/Fire_Up_Distractor.gif"",""img/Fire_Up_Distractor.gif"",""img/Fire_Up_Distractor.gif"",""img/Fire_Up_Distractor.gif"",""img/Fire_Up_Distractor.gif"",""img/Fire_Up_Distractor.gif"",""img/Fire_Up_Distractor.gif"",""img/Fire_Up_Distractor.gif"",""img/Fire_Up_Distractor.gif"",""img/Fire_Up_Distractor.gif"",""img/Fire_Up_Distractor.gif""]","6","targetDown_distractorsUp"
"","","","","","html-keyboard-response","214","569203","0.0-14.0-0.0-0.100","60d5f605483d5fe184fcaad8","619531dcf66c91622fa1b861","619599eadaff67e2d91f9efc","null","","null","","","","","main_T1_ITI","","","","",""
"","","","","","visual-search-circle","215","571364","0.0-14.0-0.0-1.100","60d5f605483d5fe184fcaad8","619531dcf66c91622fa1b861","619599eadaff67e2d91f9efc","1157","","d","true","[[95,80],[7,367],[212,586],[504,519],[592,232],[387,13]]","true","6","main_T2_Trial","d","img/Fire_Down_Target.gif","[""img/Fire_Up_Distractor.gif"",""img/Fire_Up_Distractor.gif"",""img/Fire_Up_Distractor.gif"",""img/Fire_Up_Distractor.gif"",""img/Fire_Up_Distractor.gif"",""img/Fire_Up_Distractor.gif"",""img/Fire_Up_Distractor.gif"",""img/Fire_Up_Distractor.gif"",""img/Fire_Up_Distractor.gif"",""img/Fire_Up_Distractor.gif"",""img/Fire_Up_Distractor.gif"",""img/Fire_Up_Distractor.gif""]","6","targetDown_distractorsUp"
"","","","","","html-keyboard-response","216","571372","0.0-14.0-0.0-0.101","60d5f605483d5fe184fcaad8","619531dcf66c91622fa1b861","619599eadaff67e2d91f9efc","null","","null","","","","","main_T1_ITI","","","","",""
