trial_index,time_elapsed,subject_id,rt,response,position_of_items,colors_of_items,color_of_target,wheel_spin,response_angle,physical_response_angle,reported_color_angle,reported_color_discrete,which_test,set_size,wheel_num_options,actual_mask_duration,actual_stim_duration,CMDispTime,maskArray,maskRotation,item_positions,task,randomSpinAmount,subNo,targetLocation,targetLocationDeg,colorCorrected,distance,colorUnCorrected,distance1,distance2
20,213433,"558943fafdf99b5ccd435cb3",4952,"","[4,0,6,1,5]","[98,279,18,232,325]",98,251,351.15460897298,351.15460897298,100.15460897298,99,0,5,0,154.443999999989,0,0,"[[[""img/mask70.png""],[""img/mask44.png""],[""img/mask8.png""],[""img/mask74.png""],[""img/mask26.png""]]]","","[4,0,6,1,5]","color",251,1,4,270,351.15460897298,81.1546089729798,351.15460897298,81.1546089729798,81.1546089729798
48,315890,"558943fafdf99b5ccd435cb3",3147,"","[5,0,4]","[281,66,106]",281,336,282.355726209379,282.355726209379,306.355726209379,307,0,3,0,151.940000000002,0,0,"[[[""img/mask10.png""],[""img/mask2.png""],[""img/mask13.png""]]]","","[5,0,4]","color",336,1,5,225,282.355726209379,57.3557262093795,282.355726209379,57.3557262093795,57.3557262093795
54,340754,"558943fafdf99b5ccd435cb3",2879,"","[4,0,3,7,5]","[329,280,97,204,302]",329,300,309.793200779803,309.793200779803,9.79320077980282,10,0,5,0,156.267999999982,0,0,"[[[""img/mask95.png""],[""img/mask47.png""],[""img/mask18.png""],[""img/mask100.png""],[""img/mask86.png""]]]","","[4,0,3,7,5]","color",300,1,4,270,309.793200779803,39.7932007798028,309.793200779803,39.7932007798028,39.7932007798028
58,358325,"558943fafdf99b5ccd435cb3",2449,"","[1]","[161]",161,199,21.675115310383,21.675115310383,182.675115310383,180,0,1,0,156.54800000001,0,0,"[[[""img/mask5.png""]]]","","[1]","color",199,1,1,45,21.675115310383,23.324884689617,21.675115310383,23.324884689617,23.324884689617
76,406913,"558943fafdf99b5ccd435cb3",1625,"","[2,1,6,5,7]","[327,231,358,119,67]",327,109,334.867873308948,334.867873308948,225.867873308948,226,0,5,0,143.238000000012,0,0,"[[[""img/mask81.png""],[""img/mask87.png""],[""img/mask8.png""],[""img/mask50.png""],[""img/mask74.png""]]]","","[2,1,6,5,7]","color",109,1,2,0,-25.1321266910518,25.1321266910518,334.867873308948,25.1321266910518,334.867873308948
78,414193,"558943fafdf99b5ccd435cb3",3738,"","[3,4,2]","[114,42,227]",114,312,97.0092354057481,97.0092354057481,145.009235405748,141,0,3,0,151.697999999975,0,0,"[[[""img/mask78.png""],[""img/mask56.png""],[""img/mask42.png""]]]","","[3,4,2]","color",312,1,3,315,457.009235405748,142.009235405748,97.0092354057481,142.009235405748,217.990764594252
86,442131,"558943fafdf99b5ccd435cb3",3424,"","[0,3,6]","[49,252,22]",49,75,25.854872205553,25.854872205553,310.854872205553,308,0,3,0,143.568000000028,0,0,"[[[""img/mask35.png""],[""img/mask84.png""],[""img/mask20.png""]]]","","[0,3,6]","color",75,1,0,90,25.854872205553,64.145127794447,25.854872205553,64.145127794447,64.145127794447
88,447562,"558943fafdf99b5ccd435cb3",2473,"","[3,0,7,6,4]","[288,352,258,184,93]",288,171,322.885438800052,322.885438800052,151.885438800052,151,0,5,0,144.646000000008,0,0,"[[[""img/mask61.png""],[""img/mask56.png""],[""img/mask60.png""],[""img/mask96.png""],[""img/mask23.png""]]]","","[3,0,7,6,4]","color",171,1,3,315,322.885438800052,7.88543880005244,322.885438800052,7.88543880005244,7.88543880005244
100,486970,"558943fafdf99b5ccd435cb3",1617,"","[3,4,1]","[315,125,356]",315,233,NaN,NaN,NaN,219,0,3,0,150.70199999999,0,0,"[[[""img/mask71.png""],[""img/mask91.png""],[""img/mask98.png""]]]","","[3,4,1]","color",233,1,3,315,NaN,NaN,NaN,NaN,NaN
110,515658,"558943fafdf99b5ccd435cb3",1840,"","[3,2,5]","[260,12,337]",260,273,286.033279781005,286.033279781005,13.0332797810053,15,0,3,0,156.229999999981,0,0,"[[[""img/mask6.png""],[""img/mask83.png""],[""img/mask89.png""]]]","","[3,2,5]","color",273,1,3,315,286.033279781005,28.9667202189947,286.033279781005,28.9667202189947,28.9667202189947
112,520962,"558943fafdf99b5ccd435cb3",2176,"","[7,0,1]","[56,217,123]",56,0,207.418486063642,207.418486063642,207.418486063642,206,0,3,0,157.697999999975,0,0,"[[[""img/mask12.png""],[""img/mask96.png""],[""img/mask97.png""]]]","","[7,0,1]","color",0,1,7,135,-152.581513936358,72.4184860636417,207.418486063642,287.581513936358,72.4184860636417
126,564314,"558943fafdf99b5ccd435cb3",4381,"","[5]","[33]",33,217,226.302484369668,226.302484369668,9.30248436966835,8,0,1,0,154.052000000025,0,0,"[[[""img/mask30.png""]]]","","[5]","color",217,1,5,225,226.302484369668,1.30248436966835,226.302484369668,1.30248436966835,1.30248436966835
128,571274,"558943fafdf99b5ccd435cb3",2589,"","[4,1,0,7,3]","[142,0,228,114,68]",142,284,271.135430575967,271.135430575967,347.135430575967,347,0,5,0,143.702000000048,0,0,"[[[""img/mask31.png""],[""img/mask19.png""],[""img/mask9.png""],[""img/mask97.png""],[""img/mask15.png""]]]","","[4,1,0,7,3]","color",284,1,4,270,271.135430575967,1.13543057596729,271.135430575967,1.13543057596729,1.13543057596729
130,580412,"558943fafdf99b5ccd435cb3",2028,"","[1,2,6,3,5]","[330,110,196,275,38]",330,156,23.7793277046819,23.7793277046819,227.779327704682,228,0,5,0,158.314000000013,0,0,"[[[""img/mask51.png""],[""img/mask2.png""],[""img/mask49.png""],[""img/mask4.png""],[""img/mask4.png""]]]","","[1,2,6,3,5]","color",156,1,1,45,23.7793277046819,21.2206722953181,23.7793277046819,21.2206722953181,21.2206722953181
138,605170,"558943fafdf99b5ccd435cb3",4438,"","[4]","[15]",15,7,9.83158031631991,9.83158031631991,2.83158031631991,1,0,1,0,155.420000000042,0,0,"[[[""img/mask80.png""]]]","","[4]","color",7,1,4,270,369.83158031632,99.8315803163199,9.83158031631991,99.8315803163199,260.16841968368
146,631298,"558943fafdf99b5ccd435cb3",1650,"","[5,1,4]","[284,20,250]",284,203,219.222314511392,219.222314511392,16.2223145113925,17,0,3,0,153.930000000051,0,0,"[[[""img/mask15.png""],[""img/mask17.png""],[""img/mask76.png""]]]","","[5,1,4]","color",203,1,5,225,219.222314511392,5.77768548860755,219.222314511392,5.77768548860755,5.77768548860755
150,642274,"558943fafdf99b5ccd435cb3",1977,"","[0]","[278]",278,283,284.141116657956,284.141116657956,1.14111665795616,1,0,1,0,142.503999999957,0,0,"[[[""img/mask45.png""]]]","","[0]","color",283,1,0,90,-75.8588833420438,165.858883342044,284.141116657956,165.858883342044,194.141116657956
152,651874,"558943fafdf99b5ccd435cb3",6661,"","[1,2,3]","[209,53,345]",209,129,83.6119400407639,83.6119400407639,314.611940040764,311,0,3,0,144.974000000046,0,0,"[[[""img/mask84.png""],[""img/mask8.png""],[""img/mask81.png""]]]","","[1,2,3]","color",129,1,1,45,83.6119400407639,38.6119400407639,83.6119400407639,38.6119400407639,38.6119400407639
154,658540,"558943fafdf99b5ccd435cb3",3193,"","[5]","[190]",190,118,156.144361009458,156.144361009458,38.1443610094582,37,0,1,0,142.902000000002,0,0,"[[[""img/mask55.png""]]]","","[5]","color",118,1,5,225,516.144361009458,68.8556389905418,156.144361009458,291.144361009458,68.8556389905418
156,665754,"558943fafdf99b5ccd435cb3",4242,"","[0,1,6,7,4]","[154,356,19,106,206]",154,14,18.3535961067582,18.3535961067582,4.35359610675816,3,0,5,0,144.322000000044,0,0,"[[[""img/mask85.png""],[""img/mask47.png""],[""img/mask6.png""],[""img/mask98.png""],[""img/mask71.png""]]]","","[0,1,6,7,4]","color",14,1,0,90,18.3535961067582,71.6464038932418,18.3535961067582,71.6464038932418,71.6464038932418
166,693611,"558943fafdf99b5ccd435cb3",2214,"","[2,0,7]","[134,306,209]",134,18,336.405559742216,336.405559742216,318.405559742216,318,0,3,0,142.459999999963,0,0,"[[[""img/mask71.png""],[""img/mask55.png""],[""img/mask87.png""]]]","","[2,0,7]","color",18,1,2,0,-23.5944402577837,23.5944402577837,336.405559742216,23.5944402577837,336.405559742216
168,699298,"558943fafdf99b5ccd435cb3",2736,"","[7,4,6]","[121,312,69]",121,318,99.3887366523144,99.3887366523144,141.388736652314,138,0,3,0,144.920000000042,0,0,"[[[""img/mask19.png""],[""img/mask60.png""],[""img/mask4.png""]]]","","[7,4,6]","color",318,1,7,135,99.3887366523144,35.6112633476856,99.3887366523144,35.6112633476856,35.6112633476856
176,725154,"558943fafdf99b5ccd435cb3",2194,"","[3]","[182]",182,132,236.425115265557,236.425115265557,104.425115265557,104,0,1,0,157.863999999943,0,0,"[[[""img/mask58.png""]]]","","[3]","color",132,1,3,315,236.425115265557,78.5748847344425,236.425115265557,78.5748847344425,78.5748847344425
182,747098,"558943fafdf99b5ccd435cb3",2056,"","[4]","[292]",292,345,217.811049323206,217.811049323206,232.811049323206,232,0,1,0,153.314000000013,0,0,"[[[""img/mask48.png""]]]","","[4]","color",345,1,4,270,217.811049323206,52.1889506767938,217.811049323206,52.1889506767938,52.1889506767938
184,753914,"558943fafdf99b5ccd435cb3",3988,"","[2,3,0]","[9,197,163]",9,352,41.2461784809526,41.2461784809526,49.2461784809526,47,0,3,0,154.452000000048,0,0,"[[[""img/mask15.png""],[""img/mask83.png""],[""img/mask76.png""]]]","","[2,3,0]","color",352,1,2,0,41.2461784809526,41.2461784809526,41.2461784809526,41.2461784809526,41.2461784809526
196,791378,"558943fafdf99b5ccd435cb3",2371,"","[7]","[292]",292,338,12.9126189584628,12.9126189584628,34.9126189584628,33,0,1,0,155.221999999951,0,0,"[[[""img/mask80.png""]]]","","[7]","color",338,1,7,135,12.9126189584628,122.087381041537,12.9126189584628,122.087381041537,122.087381041537
202,808450,"558943fafdf99b5ccd435cb3",2810,"","[2]","[14]",14,144,158.145137674517,158.145137674517,14.1451376745167,14,0,1,0,155.890000000014,0,0,"[[[""img/mask52.png""]]]","","[2]","color",144,1,2,0,158.145137674517,158.145137674517,158.145137674517,158.145137674517,158.145137674517
206,821290,"558943fafdf99b5ccd435cb3",4550,"","[7]","[39]",39,83,92.1921713282523,92.1921713282523,9.19217132825231,6,0,1,0,156.445999999996,0,0,"[[[""img/mask94.png""]]]","","[7]","color",83,1,7,135,92.1921713282523,42.8078286717477,92.1921713282523,42.8078286717477,42.8078286717477
208,826274,"558943fafdf99b5ccd435cb3",2151,"","[6,7,0]","[225,197,41]",225,62,291.609502855173,291.609502855173,229.609502855173,230,0,3,0,156.484000000055,0,0,"[[[""img/mask60.png""],[""img/mask93.png""],[""img/mask40.png""]]]","","[6,7,0]","color",62,1,6,180,291.609502855173,111.609502855173,291.609502855173,111.609502855173,111.609502855173
212,837858,"558943fafdf99b5ccd435cb3",3101,"","[3,1,2,4,7]","[251,116,326,79,184]",251,100,340.274410737439,340.274410737439,240.274410737439,240,0,5,0,143.391999999993,0,0,"[[[""img/mask18.png""],[""img/mask33.png""],[""img/mask95.png""],[""img/mask90.png""],[""img/mask77.png""]]]","","[3,1,2,4,7]","color",100,1,3,315,340.274410737439,25.2744107374394,340.274410737439,25.2744107374394,25.2744107374394
218,860098,"558943fafdf99b5ccd435cb3",1494,"","[0,6,1,7,3]","[321,183,260,162,130]",321,62,296.744962018411,296.744962018411,234.744962018411,235,0,5,0,150.437999999966,0,0,"[[[""img/mask32.png""],[""img/mask3.png""],[""img/mask60.png""],[""img/mask73.png""],[""img/mask7.png""]]]","","[0,6,1,7,3]","color",62,1,0,90,-63.2550379815891,153.255037981589,296.744962018411,153.255037981589,206.744962018411
220,865659,"558943fafdf99b5ccd435cb3",2388,"","[6]","[314]",314,340,15.3324145594342,15.3324145594342,35.3324145594343,33,0,1,0,141.917999999947,0,0,"[[[""img/mask67.png""]]]","","[6]","color",340,1,6,180,15.3324145594342,164.667585440566,15.3324145594342,164.667585440566,164.667585440566
222,871498,"558943fafdf99b5ccd435cb3",2793,"","[5,2,4,6,1]","[185,282,321,229,129]",185,270,218.898871564885,218.898871564885,308.898871564885,308,0,5,0,156.033999999985,0,0,"[[[""img/mask38.png""],[""img/mask32.png""],[""img/mask41.png""],[""img/mask46.png""],[""img/mask66.png""]]]","","[5,2,4,6,1]","color",270,1,5,225,218.898871564885,6.1011284351147,218.898871564885,6.1011284351147,6.1011284351147
252,965690,"558943fafdf99b5ccd435cb3",3722,"","[2,3,1,4,7]","[291,123,223,29,2]",291,135,10.407241649437,10.407241649437,235.407241649437,234,0,5,0,155.969999999972,0,0,"[[[""img/mask68.png""],[""img/mask19.png""],[""img/mask28.png""],[""img/mask25.png""],[""img/mask32.png""]]]","","[2,3,1,4,7]","color",135,1,2,0,10.407241649437,10.407241649437,10.407241649437,10.407241649437,10.407241649437
254,971859,"558943fafdf99b5ccd435cb3",3209,"","[7,0,3,1,2]","[133,321,287,157,228]",133,166,284.1921771115,284.1921771115,118.1921771115,118,0,5,0,155.035999999964,0,0,"[[[""img/mask65.png""],[""img/mask2.png""],[""img/mask68.png""],[""img/mask19.png""],[""img/mask100.png""]]]","","[7,0,3,1,2]","color",166,1,7,135,-75.8078228884999,149.1921771115,284.1921771115,210.8078228885,149.1921771115
260,1009907,"558943fafdf99b5ccd435cb3",4590,"","[2,3,4]","[315,93,257]",315,26,105.460226027463,105.460226027463,79.4602260274635,76,0,3,0,156.236000000034,0,0,"[[[""img/mask91.png""],[""img/mask60.png""],[""img/mask91.png""]]]","","[2,3,4]","color",26,1,2,0,105.460226027463,105.460226027463,105.460226027463,105.460226027463,105.460226027463
264,1020020,"558943fafdf99b5ccd435cb3",2403,"","[1,7,5]","[340,260,11]",340,292,24.093025077937,24.093025077937,92.093025077937,90,0,3,0,156.743999999948,0,0,"[[[""img/mask70.png""],[""img/mask15.png""],[""img/mask45.png""]]]","","[1,7,5]","color",292,1,1,45,24.093025077937,20.906974922063,24.093025077937,20.906974922063,20.906974922063
266,1026450,"558943fafdf99b5ccd435cb3",3453,"","[5]","[51]",51,65,78.7940565305746,78.7940565305746,13.7940565305746,10,0,1,0,154.861999999965,0,0,"[[[""img/mask15.png""]]]","","[5]","color",65,1,5,225,438.794056530575,146.205943469425,78.7940565305746,213.794056530575,146.205943469425
284,1078050,"558943fafdf99b5ccd435cb3",2421,"","[3]","[30]",30,331,82.602456424465,82.602456424465,111.602456424465,108,0,1,0,156.090000000084,0,0,"[[[""img/mask21.png""]]]","","[3]","color",331,1,3,315,442.602456424465,127.602456424465,82.602456424465,127.602456424465,232.397543575535
288,1088731,"558943fafdf99b5ccd435cb3",2185,"","[4]","[292]",292,281,296.744962018411,296.744962018411,15.7449620184109,15,0,1,0,144.320000000065,0,0,"[[[""img/mask33.png""]]]","","[4]","color",281,1,4,270,296.744962018411,26.7449620184109,296.744962018411,26.7449620184109,26.7449620184109
302,1134525,"558943fafdf99b5ccd435cb3",2414,"","[2]","[14]",14,56,66.1301751391229,66.1301751391229,10.1301751391229,7,0,1,0,144.164000000106,0,0,"[[[""img/mask11.png""]]]","","[2]","color",56,1,2,0,66.1301751391229,66.1301751391229,66.1301751391229,66.1301751391229,66.1301751391229
326,1205962,"558943fafdf99b5ccd435cb3",2372,"","[5,0,1]","[61,125,326]",61,95,276.908446686391,276.908446686391,181.908446686391,182,0,3,0,144.638000000035,0,0,"[[[""img/mask100.png""],[""img/mask98.png""],[""img/mask60.png""]]]","","[5,0,1]","color",95,1,5,225,276.908446686391,51.9084466863914,276.908446686391,51.9084466863914,51.9084466863914
340,1261931,"558943fafdf99b5ccd435cb3",4276,"","[5,4,3]","[54,110,299]",54,39,265.725005415971,265.725005415971,226.725005415971,227,0,3,0,154.141999999993,0,0,"[[[""img/mask98.png""],[""img/mask91.png""],[""img/mask85.png""]]]","","[5,4,3]","color",39,1,5,225,265.725005415971,40.7250054159711,265.725005415971,40.7250054159711,40.7250054159711
352,1297033,"558943fafdf99b5ccd435cb3",2479,"","[0,6,5,7,3]","[218,319,248,86,136]",218,51,342.138789165,342.138789165,291.138789165,290,0,5,0,144.665999999968,0,0,"[[[""img/mask10.png""],[""img/mask98.png""],[""img/mask58.png""],[""img/mask17.png""],[""img/mask100.png""]]]","","[0,6,5,7,3]","color",51,1,0,90,-17.8612108350003,107.861210835,342.138789165,107.861210835,252.138789165
364,1345179,"558943fafdf99b5ccd435cb3",1760,"","[7,4,2]","[292,248,108]",292,10,141.533582774801,141.533582774801,131.533582774801,129,0,3,0,144.378000000026,0,0,"[[[""img/mask89.png""],[""img/mask72.png""],[""img/mask56.png""]]]","","[7,4,2]","color",10,1,7,135,141.533582774801,6.53358277480086,141.533582774801,6.53358277480086,6.53358277480086
366,1351842,"558943fafdf99b5ccd435cb3",3889,"","[7,5,4,6,3]","[329,199,289,174,106]",329,13,66.4730771774885,66.4730771774885,53.4730771774885,51,0,5,0,156.530000000028,0,0,"[[[""img/mask13.png""],[""img/mask40.png""],[""img/mask8.png""],[""img/mask55.png""],[""img/mask91.png""]]]","","[7,5,4,6,3]","color",13,1,7,135,66.4730771774885,68.5269228225115,66.4730771774885,68.5269228225115,68.5269228225115
412,1492235,"558943fafdf99b5ccd435cb3",3556,"","[4,3,0]","[12,167,251]",12,240,294.217429286337,294.217429286337,54.2174292863373,54,0,3,0,143.233999999939,0,0,"[[[""img/mask54.png""],[""img/mask27.png""],[""img/mask82.png""]]]","","[4,3,0]","color",240,1,4,270,294.217429286337,24.2174292863373,294.217429286337,24.2174292863373,24.2174292863373
416,1503379,"558943fafdf99b5ccd435cb3",2733,"","[0,3,5,4,1]","[225,39,273,15,154]",225,337,59.1426767875781,59.1426767875781,82.1426767875781,80,0,5,0,143.42200000002,0,0,"[[[""img/mask14.png""],[""img/mask98.png""],[""img/mask10.png""],[""img/mask35.png""],[""img/mask5.png""]]]","","[0,3,5,4,1]","color",337,1,0,90,59.1426767875781,30.8573232124219,59.1426767875781,30.8573232124219,30.8573232124219
420,1520786,"558943fafdf99b5ccd435cb3",4475,"","[0,3,1]","[164,129,4]",164,30,93.2215825395041,93.2215825395041,63.2215825395041,60,0,3,0,144.462000000058,0,0,"[[[""img/mask67.png""],[""img/mask20.png""],[""img/mask41.png""]]]","","[0,3,1]","color",30,1,0,90,93.2215825395041,3.22158253950407,93.2215825395041,3.22158253950407,3.22158253950407
422,1527035,"558943fafdf99b5ccd435cb3",3408,"","[6]","[220]",220,71,233.571888411615,233.571888411615,162.571888411615,163,0,1,0,143.835999999894,0,0,"[[[""img/mask38.png""]]]","","[6]","color",71,1,6,180,233.571888411615,53.571888411615,233.571888411615,53.571888411615,53.571888411615
426,1540146,"558943fafdf99b5ccd435cb3",2853,"","[2,1,3,0,4]","[103,181,208,258,30]",103,230,228.266490846781,228.266490846781,358.266490846781,358,0,5,0,144.956000000006,0,0,"[[[""img/mask40.png""],[""img/mask53.png""],[""img/mask92.png""],[""img/mask36.png""],[""img/mask82.png""]]]","","[2,1,3,0,4]","color",230,1,2,0,-131.733509153219,131.733509153219,228.266490846781,131.733509153219,228.266490846781
430,1550666,"558943fafdf99b5ccd435cb3",1882,"","[5,2,6,3,7]","[74,216,181,4,297]",74,43,238.5604271652,238.5604271652,195.5604271652,195,0,5,0,143.164000000106,0,0,"[[[""img/mask9.png""],[""img/mask1.png""],[""img/mask28.png""],[""img/mask94.png""],[""img/mask85.png""]]]","","[5,2,6,3,7]","color",43,1,5,225,238.5604271652,13.5604271651997,238.5604271652,13.5604271651997,13.5604271651997
434,1561426,"558943fafdf99b5ccd435cb3",2417,"","[0]","[28]",28,314,143.480298289638,143.480298289638,189.480298289638,188,0,1,0,141.753999999957,0,0,"[[[""img/mask82.png""]]]","","[0]","color",314,1,0,90,143.480298289638,53.4802982896378,143.480298289638,53.4802982896378,53.4802982896378
438,1573163,"558943fafdf99b5ccd435cb3",2019,"","[1,5,3]","[208,237,139]",208,24,354.253769334117,354.253769334117,330.253769334117,329,0,3,0,152.601999999955,0,0,"[[[""img/mask55.png""],[""img/mask37.png""],[""img/mask30.png""]]]","","[1,5,3]","color",24,1,1,45,-5.74623066588339,50.7462306658834,354.253769334117,50.7462306658834,309.253769334117
444,1590979,"558943fafdf99b5ccd435cb3",2154,"","[6]","[233]",233,248,282.251283822378,282.251283822378,34.251283822378,34,0,1,0,158.227999999886,0,0,"[[[""img/mask4.png""]]]","","[6]","color",248,1,6,180,282.251283822378,102.251283822378,282.251283822378,102.251283822378,102.251283822378
458,1636091,"558943fafdf99b5ccd435cb3",2433,"","[3,1,7,4,6]","[289,201,18,125,237]",289,249,289.42607102493,289.42607102493,40.4260710249298,40,0,5,0,144.767999999924,0,0,"[[[""img/mask73.png""],[""img/mask15.png""],[""img/mask19.png""],[""img/mask23.png""],[""img/mask79.png""]]]","","[3,1,7,4,6]","color",249,1,3,315,289.42607102493,25.5739289750702,289.42607102493,25.5739289750702,25.5739289750702
460,1642483,"558943fafdf99b5ccd435cb3",2560,"","[6,1,0,7,4]","[63,220,269,38,86]",63,343,212.359256975069,212.359256975069,229.359256975069,228,0,5,0,153.183999999892,0,0,"[[[""img/mask53.png""],[""img/mask57.png""],[""img/mask22.png""],[""img/mask97.png""],[""img/mask9.png""]]]","","[6,1,0,7,4]","color",343,1,6,180,212.359256975069,32.3592569750691,212.359256975069,32.3592569750691,32.3592569750691
462,1647683,"558943fafdf99b5ccd435cb3",2510,"","[2,4,1,3,6]","[177,87,219,303,44]",177,217,355.213360340106,355.213360340106,138.213360340106,138,0,5,0,155.973999999929,0,0,"[[[""img/mask46.png""],[""img/mask75.png""],[""img/mask17.png""],[""img/mask38.png""],[""img/mask34.png""]]]","","[2,4,1,3,6]","color",217,1,2,0,-4.78663965989364,4.78663965989364,355.213360340106,4.78663965989364,355.213360340106
472,1676507,"558943fafdf99b5ccd435cb3",2767,"","[3]","[94]",94,300,147.08851786381,147.08851786381,207.08851786381,204,0,1,0,144.497999999905,0,0,"[[[""img/mask50.png""]]]","","[3]","color",300,1,3,315,507.08851786381,167.91148213619,147.08851786381,192.08851786381,167.91148213619
496,1749067,"558943fafdf99b5ccd435cb3",2365,"","[3]","[34]",34,76,289.77601860142,289.77601860142,213.77601860142,214,0,1,0,144.246000000043,0,0,"[[[""img/mask34.png""]]]","","[3]","color",76,1,3,315,289.77601860142,25.2239813985805,289.77601860142,25.2239813985805,25.2239813985805
20,389041,"5bbeb9e16322c500015ae44c",4175.29999999702,"","[4,2,1,0,3]","[221,112,258,187,24]",221,157,120.728085999245,120.728085999245,323.728085999245,320,0,5,0,147.938000001479,0,0,"[[[""img/mask48.png""],[""img/mask100.png""],[""img/mask59.png""],[""img/mask8.png""],[""img/mask32.png""]]]","","[4,2,1,0,3]","color",157,2,4,270,480.728085999245,149.271914000755,120.728085999245,210.728085999245,149.271914000755
24,403011,"5bbeb9e16322c500015ae44c",3354.5,"","[6,0,3,2,4]","[24,235,266,311,100]",24,1,258.969137618549,258.969137618549,257.969137618549,258,0,5,0,156.820999995514,0,0,"[[[""img/mask52.png""],[""img/mask78.png""],[""img/mask5.png""],[""img/mask46.png""],[""img/mask12.png""]]]","","[6,0,3,2,4]","color",1,2,6,180,258.969137618549,78.9691376185486,258.969137618549,78.9691376185486,78.9691376185486
26,408774,"5bbeb9e16322c500015ae44c",2312.89999999851,"","[3,6,2]","[226,98,184]",226,287,320.14168334587,320.14168334587,33.1416833458699,33,0,3,0,151.475999998511,0,0,"[[[""img/mask27.png""],[""img/mask28.png""],[""img/mask61.png""]]]","","[3,6,2]","color",287,2,3,315,320.14168334587,5.14168334586992,320.14168334587,5.14168334586992,5.14168334586992
34,432085,"5bbeb9e16322c500015ae44c",3242.10000000149,"","[7]","[332]",332,1,87.964446199584,87.964446199584,86.964446199584,83,0,1,0,145.714999996999,0,0,"[[[""img/mask35.png""]]]","","[7]","color",1,2,7,135,87.964446199584,47.035553800416,87.964446199584,47.035553800416,47.035553800416
54,490756,"5bbeb9e16322c500015ae44c",2630,"","[4]","[268]",268,290,100.18022336287,100.18022336287,170.18022336287,167,0,1,0,147.690000000002,0,0,"[[[""img/mask39.png""]]]","","[4]","color",290,2,4,270,460.18022336287,169.81977663713,100.18022336287,190.18022336287,169.81977663713
80,576462,"5bbeb9e16322c500015ae44c",2632.70000000298,"","[5]","[66]",66,112,146.681501902201,146.681501902201,34.6815019022007,33,0,1,0,150.329999997048,0,0,"[[[""img/mask2.png""]]]","","[5]","color",112,2,5,225,506.681501902201,78.3184980977993,146.681501902201,281.681501902201,78.3184980977993
90,603698,"5bbeb9e16322c500015ae44c",3116.70000000298,"","[6]","[350]",350,265,139.348990388218,139.348990388218,234.348990388218,231,0,1,0,148.357000001473,0,0,"[[[""img/mask90.png""]]]","","[6]","color",265,2,6,180,139.348990388218,40.6510096117824,139.348990388218,40.6510096117824,40.6510096117824
92,609634,"5bbeb9e16322c500015ae44c",3321,"","[4]","[349]",349,10,140.439236749006,140.439236749006,130.439236749006,127,0,1,0,144.203000001493,0,0,"[[[""img/mask63.png""]]]","","[4]","color",10,2,4,270,500.439236749006,129.560763250994,140.439236749006,230.439236749006,129.560763250994
96,621293,"5bbeb9e16322c500015ae44c",2721.29999999702,"","[2,6,7]","[268,15,313]",268,175,340.1632279874,340.1632279874,165.1632279874,164,0,3,0,146.084999995539,0,0,"[[[""img/mask46.png""],[""img/mask47.png""],[""img/mask21.png""]]]","","[2,6,7]","color",175,2,2,0,-19.8367720125995,19.8367720125995,340.1632279874,19.8367720125995,340.1632279874
98,643858,"5bbeb9e16322c500015ae44c",2196.30000000447,"","[5,1,6]","[237,192,327]",237,158,27.5947855413427,27.5947855413427,229.594785541343,227,0,3,0,156.650999997044,0,0,"[[[""img/mask20.png""],[""img/mask93.png""],[""img/mask68.png""]]]","","[5,1,6]","color",158,2,5,225,387.594785541343,162.594785541343,27.5947855413427,162.594785541343,197.405214458657
100,649532,"5bbeb9e16322c500015ae44c",2954.59999999404,"","[0,1,5,2,3]","[317,265,8,42,148]",317,322,147.295558951774,147.295558951774,185.295558951774,182,0,5,0,149.565000001458,0,0,"[[[""img/mask100.png""],[""img/mask65.png""],[""img/mask32.png""],[""img/mask77.png""],[""img/mask6.png""]]]","","[0,1,5,2,3]","color",322,2,0,90,147.295558951774,57.2955589517739,147.295558951774,57.2955589517739,57.2955589517739
112,681821,"5bbeb9e16322c500015ae44c",2128.09999999404,"","[2,1,3]","[88,223,17]",88,8,8.20110571093845,8.20110571093845,0.20110571093845,358,0,3,0,150.737999995472,0,0,"[[[""img/mask47.png""],[""img/mask7.png""],[""img/mask60.png""]]]","","[2,1,3]","color",8,2,2,0,8.20110571093845,8.20110571093845,8.20110571093845,8.20110571093845,8.20110571093845
118,698008,"5bbeb9e16322c500015ae44c",3722.69999999553,"","[7]","[289]",289,265,340.903598222385,340.903598222385,75.9035982223847,75,0,1,0,157.138999995543,0,0,"[[[""img/mask73.png""]]]","","[7]","color",265,2,7,135,-19.0964017776153,154.096401777615,340.903598222385,154.096401777615,205.903598222385
120,702932,"5bbeb9e16322c500015ae44c",2096.60000000149,"","[3,2,5,1,4]","[110,191,245,281,317]",110,17,54.179370836623,54.179370836623,37.179370836623,35,0,5,0,149.232999995584,0,0,"[[[""img/mask53.png""],[""img/mask64.png""],[""img/mask70.png""],[""img/mask77.png""],[""img/mask23.png""]]]","","[3,2,5,1,4]","color",17,2,3,315,414.179370836623,99.179370836623,54.179370836623,99.179370836623,260.820629163377
130,726191,"5bbeb9e16322c500015ae44c",2106.39999999851,"","[6,4,5,3,1]","[249,333,193,38,114]",249,276,201.136132940593,201.136132940593,285.136132940593,284,0,5,0,144.474999998463,0,0,"[[[""img/mask30.png""],[""img/mask8.png""],[""img/mask77.png""],[""img/mask37.png""],[""img/mask96.png""]]]","","[6,4,5,3,1]","color",276,2,6,180,201.136132940593,21.1361329405931,201.136132940593,21.1361329405931,21.1361329405931
134,736760,"5bbeb9e16322c500015ae44c",2060.5,"","[0]","[252]",252,305,143.322881300417,143.322881300417,198.322881300417,195,0,1,0,147.114999998477,0,0,"[[[""img/mask20.png""]]]","","[0]","color",305,2,0,90,143.322881300417,53.3228813004174,143.322881300417,53.3228813004174,53.3228813004174
140,769232,"5bbeb9e16322c500015ae44c",1650.29999999702,"","[6,7,2]","[44,73,308]",44,93,266.976941321961,266.976941321961,173.976941321961,175,0,3,0,153.783999995561,0,0,"[[[""img/mask38.png""],[""img/mask38.png""],[""img/mask74.png""]]]","","[6,7,2]","color",93,2,6,180,266.976941321961,86.9769413219614,266.976941321961,86.9769413219614,86.9769413219614
144,778779,"5bbeb9e16322c500015ae44c",2221.79999999702,"","[0]","[248]",248,106,171.594027955498,171.594027955498,65.5940279554984,63,0,1,0,150.337000001455,0,0,"[[[""img/mask9.png""]]]","","[0]","color",106,2,0,90,171.594027955498,81.5940279554984,171.594027955498,81.5940279554984,81.5940279554984
146,782872,"5bbeb9e16322c500015ae44c",1513.60000000149,"","[5]","[279]",279,189,345.490846420743,345.490846420743,156.490846420743,156,0,1,0,153.736000000034,0,0,"[[[""img/mask44.png""]]]","","[5]","color",189,2,5,225,345.490846420743,120.490846420743,345.490846420743,120.490846420743,120.490846420743
156,809909,"5bbeb9e16322c500015ae44c",3646,"","[0,1,3]","[243,6,167]",243,64,131.063801791831,131.063801791831,67.063801791831,64,0,3,0,151.925999999978,0,0,"[[[""img/mask25.png""],[""img/mask81.png""],[""img/mask69.png""]]]","","[0,1,3]","color",64,2,0,90,131.063801791831,41.063801791831,131.063801791831,41.063801791831,41.063801791831
162,823389,"5bbeb9e16322c500015ae44c",2351.30000000447,"","[4]","[33]",33,285,25.1909457563767,25.1909457563767,100.190945756377,99,0,1,0,157.165000001434,0,0,"[[[""img/mask51.png""]]]","","[4]","color",285,2,4,270,385.190945756377,115.190945756377,25.1909457563767,115.190945756377,244.809054243623
170,845305,"5bbeb9e16322c500015ae44c",4079.69999999553,"","[1]","[173]",173,270,303.595515339843,303.595515339843,33.5955153398428,34,0,1,0,156.238999995519,0,0,"[[[""img/mask68.png""]]]","","[1]","color",270,2,1,45,-56.4044846601572,101.404484660157,303.595515339843,101.404484660157,258.595515339843
186,900835,"5bbeb9e16322c500015ae44c",1656.80000000447,"","[6,3,7]","[277,82,202]",277,183,54.9224102292539,54.9224102292539,231.922410229254,229,0,3,0,146.37199999555,0,0,"[[[""img/mask80.png""],[""img/mask47.png""],[""img/mask11.png""]]]","","[6,3,7]","color",183,2,6,180,54.9224102292539,125.077589770746,54.9224102292539,125.077589770746,125.077589770746
190,909601,"5bbeb9e16322c500015ae44c",1809.39999999851,"","[6,4,5,0,7]","[264,34,163,66,188]",264,261,319.886478936258,319.886478936258,58.8864789362576,59,0,5,0,152.449000001536,0,0,"[[[""img/mask54.png""],[""img/mask27.png""],[""img/mask41.png""],[""img/mask27.png""],[""img/mask43.png""]]]","","[6,4,5,0,7]","color",261,2,6,180,319.886478936258,139.886478936258,319.886478936258,139.886478936258,139.886478936258
212,969569,"5bbeb9e16322c500015ae44c",2592.39999999851,"","[7]","[106]",106,329,209.209636610521,209.209636610521,240.209636610521,239,0,1,0,153.084999998566,0,0,"[[[""img/mask80.png""]]]","","[7]","color",329,2,7,135,-150.790363389479,74.2096366105211,209.209636610521,285.790363389479,74.2096366105211
218,995172,"5bbeb9e16322c500015ae44c",1758.5,"","[5]","[283]",283,302,18.2278714315491,18.2278714315491,76.227871431549,74,0,1,0,149.405999999959,0,0,"[[[""img/mask87.png""]]]","","[5]","color",302,2,5,225,378.227871431549,153.227871431549,18.2278714315491,153.227871431549,206.772128568451
230,1024527,"5bbeb9e16322c500015ae44c",1777.20000000298,"","[1,7,0,4,2]","[250,291,164,71,119]",250,346,35.9437931038393,35.9437931038393,49.9437931038393,48,0,5,0,158.315999995568,0,0,"[[[""img/mask6.png""],[""img/mask1.png""],[""img/mask82.png""],[""img/mask68.png""],[""img/mask82.png""]]]","","[1,7,0,4,2]","color",346,2,1,45,35.9437931038393,9.05620689616073,35.9437931038393,9.05620689616073,9.05620689616073
242,1056202,"5bbeb9e16322c500015ae44c",2174.79999999702,"","[4,1,3,5,6]","[42,101,65,18,142]",42,303,127.767082728206,127.767082728206,184.767082728206,182,0,5,0,155.917000001529,0,0,"[[[""img/mask62.png""],[""img/mask85.png""],[""img/mask87.png""],[""img/mask59.png""],[""img/mask63.png""]]]","","[4,1,3,5,6]","color",303,2,4,270,487.767082728206,142.232917271794,127.767082728206,217.767082728206,142.232917271794
246,1067182,"5bbeb9e16322c500015ae44c",2375.20000000298,"","[5]","[334]",334,144,315.957975420211,315.957975420211,171.957975420211,171,0,1,0,144.037000000011,0,0,"[[[""img/mask36.png""]]]","","[5]","color",144,2,5,225,315.957975420211,90.9579754202114,315.957975420211,90.9579754202114,90.9579754202114
256,1098707,"5bbeb9e16322c500015ae44c",1703.79999999702,"","[0]","[179]",179,305,21.6364680188766,21.6364680188766,76.6364680188765,75,0,1,0,144.428000000073,0,0,"[[[""img/mask50.png""]]]","","[0]","color",305,2,0,90,21.6364680188766,68.3635319811234,21.6364680188766,68.3635319811234,68.3635319811234
258,1170004,"5bbeb9e16322c500015ae44c",2349.39999999851,"","[7,6,4,0,2]","[23,265,146,94,48]",23,275,334.026385271143,334.026385271143,59.0263852711432,59,0,5,0,144.645999995526,0,0,"[[[""img/mask16.png""],[""img/mask61.png""],[""img/mask35.png""],[""img/mask75.png""],[""img/mask95.png""]]]","","[7,6,4,0,2]","color",275,2,7,135,-25.9736147288568,160.973614728857,334.026385271143,160.973614728857,199.026385271143
266,1189641,"5bbeb9e16322c500015ae44c",2046.60000000149,"","[4,6,3,7,5]","[113,10,218,92,271]",113,33,72.182688218282,72.182688218282,39.182688218282,36,0,5,0,150.751999995438,0,0,"[[[""img/mask89.png""],[""img/mask96.png""],[""img/mask99.png""],[""img/mask8.png""],[""img/mask34.png""]]]","","[4,6,3,7,5]","color",33,2,4,270,432.182688218282,162.182688218282,72.182688218282,162.182688218282,197.817311781718
274,1212678,"5bbeb9e16322c500015ae44c",2945.5,"","[5,0,2,4,3]","[359,238,132,330,68]",359,258,353.217920082863,353.217920082863,95.2179200828635,94,0,5,0,153.130000001518,0,0,"[[[""img/mask56.png""],[""img/mask80.png""],[""img/mask19.png""],[""img/mask36.png""],[""img/mask80.png""]]]","","[5,0,2,4,3]","color",258,2,5,225,353.217920082863,128.217920082863,353.217920082863,128.217920082863,128.217920082863
294,1265017,"5bbeb9e16322c500015ae44c",3027.39999999851,"","[6,4,7,0,1]","[224,17,156,179,298]",224,80,189.704007242598,189.704007242598,109.704007242598,108,0,5,0,151.622999999905,0,0,"[[[""img/mask60.png""],[""img/mask63.png""],[""img/mask65.png""],[""img/mask76.png""],[""img/mask76.png""]]]","","[6,4,7,0,1]","color",80,2,6,180,189.704007242598,9.70400724259761,189.704007242598,9.70400724259761,9.70400724259761
304,1324825,"5bbeb9e16322c500015ae44c",1834.19999999553,"","[1,4,0,3,7]","[187,334,53,227,297]",187,66,234.787067833604,234.787067833604,168.787067833604,169,0,5,0,143.572999998461,0,0,"[[[""img/mask75.png""],[""img/mask41.png""],[""img/mask50.png""],[""img/mask47.png""],[""img/mask13.png""]]]","","[1,4,0,3,7]","color",66,2,1,45,-125.212932166396,170.212932166396,234.787067833604,170.212932166396,189.787067833604
310,1339877,"5bbeb9e16322c500015ae44c",2978.19999999553,"","[3,6,7]","[139,162,37]",139,136,306.395256561236,306.395256561236,170.395256561236,170,0,3,0,154.299999995623,0,0,"[[[""img/mask70.png""],[""img/mask44.png""],[""img/mask43.png""]]]","","[3,6,7]","color",136,2,3,315,306.395256561236,8.60474343876439,306.395256561236,8.60474343876439,8.60474343876439
330,1389869,"5bbeb9e16322c500015ae44c",1798.20000000298,"","[3,0,4,6,1]","[183,338,75,11,224]",183,60,310.50212901892,310.50212901892,250.50212901892,250,0,5,0,154.936999999918,0,0,"[[[""img/mask79.png""],[""img/mask3.png""],[""img/mask10.png""],[""img/mask80.png""],[""img/mask1.png""]]]","","[3,0,4,6,1]","color",60,2,3,315,310.50212901892,4.4978709810797,310.50212901892,4.4978709810797,4.4978709810797
360,1502404,"5bbeb9e16322c500015ae44c",1857.70000000298,"","[3,2,7]","[53,150,28]",53,335,332.309764275708,332.309764275708,357.309764275708,357,0,3,0,148.455999996979,0,0,"[[[""img/mask84.png""],[""img/mask77.png""],[""img/mask2.png""]]]","","[3,2,7]","color",335,2,3,315,332.309764275708,17.3097642757076,332.309764275708,17.3097642757076,17.3097642757076
362,1507231,"5bbeb9e16322c500015ae44c",1771.5,"","[1,7,6]","[1,84,252]",1,74,311.606851779179,311.606851779179,237.606851779179,238,0,3,0,144.872000001604,0,0,"[[[""img/mask60.png""],[""img/mask46.png""],[""img/mask34.png""]]]","","[1,7,6]","color",74,2,1,45,-48.3931482208208,93.3931482208208,311.606851779179,93.3931482208208,266.606851779179
366,1516987,"5bbeb9e16322c500015ae44c",1966,"","[4,7,3]","[278,161,338]",278,129,313.375303282665,313.375303282665,184.375303282665,184,0,3,0,148.956999999937,0,0,"[[[""img/mask77.png""],[""img/mask19.png""],[""img/mask86.png""]]]","","[4,7,3]","color",129,2,4,270,313.375303282665,43.3753032826653,313.375303282665,43.3753032826653,43.3753032826653
368,1521266,"5bbeb9e16322c500015ae44c",1730.29999999702,"","[2,3,0]","[143,253,274]",143,141,2.72793257659183,2.72793257659183,221.727932576592,220,0,3,0,155.857000001473,0,0,"[[[""img/mask85.png""],[""img/mask75.png""],[""img/mask85.png""]]]","","[2,3,0]","color",141,2,2,0,2.72793257659183,2.72793257659183,2.72793257659183,2.72793257659183,2.72793257659183
370,1525805,"5bbeb9e16322c500015ae44c",2085.10000000149,"","[7,2,6,5,3]","[268,139,314,30,184]",268,15,77.4801196888588,77.4801196888588,62.4801196888588,60,0,5,0,143.925999999978,0,0,"[[[""img/mask46.png""],[""img/mask30.png""],[""img/mask99.png""],[""img/mask53.png""],[""img/mask47.png""]]]","","[7,2,6,5,3]","color",15,2,7,135,77.4801196888588,57.5198803111412,77.4801196888588,57.5198803111412,57.5198803111412
372,1530177,"5bbeb9e16322c500015ae44c",1842.5,"","[4,7,1,3,0]","[172,241,215,36,340]",172,244,180.220240215033,180.220240215033,296.220240215033,294,0,5,0,145.383999995422,0,0,"[[[""img/mask26.png""],[""img/mask85.png""],[""img/mask56.png""],[""img/mask100.png""],[""img/mask90.png""]]]","","[4,7,1,3,0]","color",244,2,4,270,180.220240215033,89.7797597849671,180.220240215033,89.7797597849671,89.7797597849671
380,1572305,"5bbeb9e16322c500015ae44c",1893.79999999702,"","[5]","[182]",182,82,318.006917645006,318.006917645006,236.006917645006,236,0,1,0,151.153999998467,0,0,"[[[""img/mask28.png""]]]","","[5]","color",82,2,5,225,318.006917645006,93.0069176450062,318.006917645006,93.0069176450062,93.0069176450062
392,1600370,"5bbeb9e16322c500015ae44c",1494.29999999702,"","[5,1,4]","[156,177,215]",156,102,154.303865691424,154.303865691424,52.3038656914242,50,0,3,0,153.358000001404,0,0,"[[[""img/mask26.png""],[""img/mask72.png""],[""img/mask63.png""]]]","","[5,1,4]","color",102,2,5,225,514.303865691424,70.6961343085758,154.303865691424,289.303865691424,70.6961343085758
418,1680411,"5bbeb9e16322c500015ae44c",1404.30000000447,"","[6,0,7]","[75,208,294]",75,55,4.17055718591003,4.17055718591003,309.17055718591,307,0,3,0,153.774000001606,0,0,"[[[""img/mask44.png""],[""img/mask81.png""],[""img/mask31.png""]]]","","[6,0,7]","color",55,2,6,180,4.17055718591003,175.82944281409,4.17055718591003,175.82944281409,175.82944281409
422,1691557,"5bbeb9e16322c500015ae44c",2092.69999999553,"","[0,4,5]","[9,176,323]",9,189,151.315171805968,151.315171805968,322.315171805968,321,0,3,0,156.188999996986,0,0,"[[[""img/mask55.png""],[""img/mask38.png""],[""img/mask52.png""]]]","","[0,4,5]","color",189,2,0,90,151.315171805968,61.3151718059682,151.315171805968,61.3151718059682,61.3151718059682
428,1705626,"5bbeb9e16322c500015ae44c",1804.80000000447,"","[5]","[33]",33,198,346.13031215131,346.13031215131,148.13031215131,148,0,1,0,148.870999997016,0,0,"[[[""img/mask96.png""]]]","","[5]","color",198,2,5,225,346.13031215131,121.13031215131,346.13031215131,121.13031215131,121.13031215131
430,1710749,"5bbeb9e16322c500015ae44c",2642.89999999851,"","[6]","[131]",131,52,122.059055102532,122.059055102532,70.0590551025319,68,0,1,0,148.968999997014,0,0,"[[[""img/mask61.png""]]]","","[6]","color",52,2,6,180,122.059055102532,57.9409448974681,122.059055102532,57.9409448974681,57.9409448974681
434,1720689,"5bbeb9e16322c500015ae44c",1857.10000000149,"","[3,7,5,2,0]","[127,98,32,151,339]",127,6,201.954720686422,201.954720686422,195.954720686422,195,0,5,0,148.712999996962,0,0,"[[[""img/mask77.png""],[""img/mask18.png""],[""img/mask1.png""],[""img/mask78.png""],[""img/mask90.png""]]]","","[3,7,5,2,0]","color",6,2,3,315,201.954720686422,113.045279313578,201.954720686422,113.045279313578,113.045279313578
440,1734742,"5bbeb9e16322c500015ae44c",2418.70000000298,"","[0,7,5]","[186,137,34]",186,272,353.285969572804,353.285969572804,81.285969572804,81,0,3,0,149.392999999924,0,0,"[[[""img/mask26.png""],[""img/mask61.png""],[""img/mask53.png""]]]","","[0,7,5]","color",272,2,0,90,-6.71403042719595,96.714030427196,353.285969572804,96.714030427196,263.285969572804
442,1739020,"5bbeb9e16322c500015ae44c",1744.29999999702,"","[0,7,1]","[64,279,344]",64,82,262.61353053655,262.61353053655,180.61353053655,181,0,3,0,146.806000000099,0,0,"[[[""img/mask48.png""],[""img/mask56.png""],[""img/mask77.png""]]]","","[0,7,1]","color",82,2,0,90,-97.3864694634499,172.61353053655,262.61353053655,187.38646946345,172.61353053655
462,1812523,"5bbeb9e16322c500015ae44c",2065.89999999851,"","[0,7,2]","[333,51,110]",333,186,79.4840262277593,79.4840262277593,253.484026227759,250,0,3,0,149.848999999929,0,0,"[[[""img/mask25.png""],[""img/mask85.png""],[""img/mask63.png""]]]","","[0,7,2]","color",186,2,0,90,79.4840262277593,10.5159737722407,79.4840262277593,10.5159737722407,10.5159737722407
470,1830277,"5bbeb9e16322c500015ae44c",1649.39999999851,"","[5]","[80]",80,321,340.024760911095,340.024760911095,19.0247609110951,18,0,1,0,153.110999998404,0,0,"[[[""img/mask44.png""]]]","","[5]","color",321,2,5,225,340.024760911095,115.024760911095,340.024760911095,115.024760911095,115.024760911095
474,1839504,"5bbeb9e16322c500015ae44c",1751.5,"","[1,5,0,6,2]","[40,164,9,62,197]",40,221,111.303750385277,111.303750385277,250.303750385277,247,0,5,0,150.28199999989,0,0,"[[[""img/mask23.png""],[""img/mask33.png""],[""img/mask96.png""],[""img/mask83.png""],[""img/mask35.png""]]]","","[1,5,0,6,2]","color",221,2,1,45,111.303750385277,66.303750385277,111.303750385277,66.303750385277,66.303750385277
484,1865648,"5bbeb9e16322c500015ae44c",3522.79999999702,"","[5,4,0,6,2]","[276,170,77,105,215]",276,267,4.86255373120649,4.86255373120649,97.8625537312065,96,0,5,0,147.526000001468,0,0,"[[[""img/mask95.png""],[""img/mask26.png""],[""img/mask74.png""],[""img/mask42.png""],[""img/mask43.png""]]]","","[5,4,0,6,2]","color",267,2,5,225,364.862553731207,139.862553731207,4.86255373120649,139.862553731207,220.137446268794
486,1870293,"5bbeb9e16322c500015ae44c",1822.29999999702,"","[5]","[242]",242,303,92.5951723513697,92.5951723513697,149.59517235137,147,0,1,0,158.120000000112,0,0,"[[[""img/mask15.png""]]]","","[5]","color",303,2,5,225,452.59517235137,132.40482764863,92.5951723513697,227.59517235137,132.40482764863
490,1880598,"5bbeb9e16322c500015ae44c",2749.29999999702,"","[5,2,6]","[113,286,343]",113,66,90.0348006667719,90.0348006667719,24.0348006667719,21,0,3,0,145.753999995533,0,0,"[[[""img/mask37.png""],[""img/mask29.png""],[""img/mask57.png""]]]","","[5,2,6]","color",66,2,5,225,450.034800666772,134.965199333228,90.0348006667719,225.034800666772,134.965199333228
496,1896618,"5bbeb9e16322c500015ae44c",2207.30000000447,"","[5,7,3,0,1]","[99,328,244,356,38]",99,254,291.681099367956,291.681099367956,37.6810993679559,39,0,5,0,156.795999995433,0,0,"[[[""img/mask33.png""],[""img/mask16.png""],[""img/mask52.png""],[""img/mask44.png""],[""img/mask1.png""]]]","","[5,7,3,0,1]","color",254,2,5,225,291.681099367956,66.6810993679559,291.681099367956,66.6810993679559,66.6810993679559
498,1903293,"5bbeb9e16322c500015ae44c",2070.60000000149,"","[0,1,7]","[352,189,230]",352,245,96.9645724128837,96.9645724128837,211.964572412884,208,0,3,0,144.421999995597,0,0,"[[[""img/mask55.png""],[""img/mask77.png""],[""img/mask54.png""]]]","","[0,1,7]","color",245,2,0,90,96.9645724128837,6.96457241288371,96.9645724128837,6.96457241288371,6.96457241288371
26,197680,"5c7070519f9392000150023c",3395.5,"","[1,2,6,0,4]","[299,24,45,195,217]",299,283,200.993733425611,200.993733425611,277.993733425611,278,0,5,0,149.780999999988,0,0,"[[[""img/mask5.png""],[""img/mask99.png""],[""img/mask82.png""],[""img/mask8.png""],[""img/mask63.png""]]]","","[1,2,6,0,4]","color",283,3,1,45,-159.006266574389,155.993733425611,200.993733425611,204.006266574389,155.993733425611
32,215886,"5c7070519f9392000150023c",2353.79999995232,"","[4,3,1,7,5]","[292,96,1,256,325]",292,297,280.476610739685,280.476610739685,343.476610739685,343,0,5,0,156.722000000009,0,0,"[[[""img/mask47.png""],[""img/mask78.png""],[""img/mask36.png""],[""img/mask62.png""],[""img/mask12.png""]]]","","[4,3,1,7,5]","color",297,3,4,270,280.476610739685,10.476610739685,280.476610739685,10.476610739685,10.476610739685
40,236358,"5c7070519f9392000150023c",2360.29999995232,"","[0]","[77]",77,146,88.2415327336619,88.2415327336619,302.241532733662,299,0,1,0,149.679000047676,0,0,"[[[""img/mask63.png""]]]","","[0]","color",146,3,0,90,88.2415327336619,1.75846726633812,88.2415327336619,1.75846726633812,1.75846726633812
50,264724,"5c7070519f9392000150023c",1771.89999997616,"","[5]","[235]",235,247,281.926340055995,281.926340055995,34.9263400559949,35,0,1,0,143.51299997617,0,0,"[[[""img/mask32.png""]]]","","[5]","color",247,3,5,225,281.926340055995,56.9263400559949,281.926340055995,56.9263400559949,56.9263400559949
52,269317,"5c7070519f9392000150023c",2210.29999995232,"","[0,1,2,4,7]","[352,65,203,108,298]",352,147,156.756356876807,156.756356876807,9.75635687680736,7,0,5,0,144.782999952324,0,0,"[[[""img/mask74.png""],[""img/mask56.png""],[""img/mask20.png""],[""img/mask24.png""],[""img/mask36.png""]]]","","[0,1,2,4,7]","color",147,3,0,90,156.756356876807,66.7563568768074,156.756356876807,66.7563568768074,66.7563568768074
58,286171,"5c7070519f9392000150023c",1785.29999995232,"","[5,3,4]","[55,299,220]",55,49,36.6105734710169,36.6105734710169,347.610573471017,345,0,3,0,157.970000023837,0,0,"[[[""img/mask75.png""],[""img/mask53.png""],[""img/mask16.png""]]]","","[5,3,4]","color",49,3,5,225,396.610573471017,171.610573471017,36.6105734710169,171.610573471017,188.389426528983
64,301643,"5c7070519f9392000150023c",2996.70000004768,"","[2]","[334]",334,124,202.745463842938,202.745463842938,78.7454638429377,78,0,1,0,149.637999952305,0,0,"[[[""img/mask56.png""]]]","","[2]","color",124,3,2,0,-157.254536157062,157.254536157062,202.745463842938,157.254536157062,202.745463842938
68,310609,"5c7070519f9392000150023c",2355,"","[1,4,7,2,6]","[258,320,3,122,87]",258,260,269.967899529279,269.967899529279,9.9678995292789,10,0,5,0,156.053000000014,0,0,"[[[""img/mask7.png""],[""img/mask58.png""],[""img/mask39.png""],[""img/mask67.png""],[""img/mask5.png""]]]","","[1,4,7,2,6]","color",260,3,1,45,-90.0321004707211,135.032100470721,269.967899529279,135.032100470721,224.967899529279
70,314537,"5c7070519f9392000150023c",1446,"","[6,1,2,4,0]","[171,145,352,200,101]",171,93,205.211093795033,205.211093795033,112.211093795033,111,0,5,0,157.774999952293,0,0,"[[[""img/mask72.png""],[""img/mask83.png""],[""img/mask35.png""],[""img/mask78.png""],[""img/mask95.png""]]]","","[6,1,2,4,0]","color",93,3,6,180,205.211093795033,25.2110937950332,205.211093795033,25.2110937950332,25.2110937950332
82,341769,"5c7070519f9392000150023c",1058.10000002384,"","[1]","[206]",206,44,49.8300206165113,49.8300206165113,5.83002061651131,3,0,1,0,146.097000000009,0,0,"[[[""img/mask24.png""]]]","","[1]","color",44,3,1,45,49.8300206165113,4.83002061651131,49.8300206165113,4.83002061651131,4.83002061651131
88,355178,"5c7070519f9392000150023c",1691.60000002384,"","[4]","[279]",279,194,184.690412341331,184.690412341331,350.690412341331,349,0,1,0,152.011000023864,0,0,"[[[""img/mask25.png""]]]","","[4]","color",194,3,4,270,184.690412341331,85.3095876586686,184.690412341331,85.3095876586686,85.3095876586686
106,397688,"5c7070519f9392000150023c",1736.89999997616,"","[0]","[0]",0,175,211.402866439368,211.402866439368,36.4028664393677,35,0,1,0,147.334000023839,0,0,"[[[""img/mask61.png""]]]","","[0]","color",175,3,0,90,-148.597133560632,121.402866439368,211.402866439368,238.597133560632,121.402866439368
112,410041,"5c7070519f9392000150023c",1662.60000002384,"","[7,5,6]","[294,109,72]",294,157,130.142724171463,130.142724171463,333.142724171463,330,0,3,0,158.056000047713,0,0,"[[[""img/mask42.png""],[""img/mask7.png""],[""img/mask2.png""]]]","","[7,5,6]","color",157,3,7,135,130.142724171463,4.85727582853721,130.142724171463,4.85727582853721,4.85727582853721
116,419161,"5c7070519f9392000150023c",1959.5,"","[3]","[324]",324,56,315.948644586319,315.948644586319,259.948644586319,259,0,1,0,155.99499997613,0,0,"[[[""img/mask97.png""]]]","","[3]","color",56,3,3,315,315.948644586319,0.948644586318551,315.948644586319,0.948644586318551,0.948644586318551
128,445985,"5c7070519f9392000150023c",2129.89999997616,"","[7,1,5]","[256,341,151]",256,307,141.63739280199,141.63739280199,194.63739280199,192,0,3,0,146.625999952317,0,0,"[[[""img/mask14.png""],[""img/mask55.png""],[""img/mask29.png""]]]","","[7,1,5]","color",307,3,7,135,141.63739280199,6.63739280199022,141.63739280199,6.63739280199022,6.63739280199022
148,495956,"5c7070519f9392000150023c",1314.70000004768,"","[3,4,0]","[132,189,260]",132,320,319.887833842054,319.887833842054,359.887833842054,0,0,3,0,152.390999952331,0,0,"[[[""img/mask31.png""],[""img/mask25.png""],[""img/mask56.png""]]]","","[3,4,0]","color",320,3,3,315,319.887833842054,4.88783384205414,319.887833842054,4.88783384205414,4.88783384205414
150,499814,"5c7070519f9392000150023c",1303.20000004768,"","[4,0,6]","[243,35,207]",243,253,269.968278668619,269.968278668619,16.9682786686189,17,0,3,0,142.483000023814,0,0,"[[[""img/mask39.png""],[""img/mask1.png""],[""img/mask41.png""]]]","","[4,0,6]","color",253,3,4,270,269.968278668619,0.0317213313811067,269.968278668619,0.0317213313811067,0.0317213313811067
156,512198,"5c7070519f9392000150023c",1711.30000007153,"","[0]","[254]",254,309,287.540741571046,287.540741571046,338.540741571046,338,0,1,0,153.146000023815,0,0,"[[[""img/mask81.png""]]]","","[0]","color",309,3,0,90,-72.4592584289541,162.459258428954,287.540741571046,162.459258428954,197.540741571046
184,578901,"5c7070519f9392000150023c",1879.90000009537,"","[0,6,7,1,3]","[301,84,192,250,29]",301,116,90.2562845594105,90.2562845594105,334.25628455941,331,0,5,0,157.011999999988,0,0,"[[[""img/mask72.png""],[""img/mask66.png""],[""img/mask22.png""],[""img/mask21.png""],[""img/mask70.png""]]]","","[0,6,7,1,3]","color",116,3,0,90,90.2562845594105,0.256284559410489,90.2562845594105,0.256284559410489,0.256284559410489
188,587864,"5c7070519f9392000150023c",2654.60000002384,"","[5]","[278]",278,242,326.228508395456,326.228508395456,84.2285083954558,83,0,1,0,147.079000023892,0,0,"[[[""img/mask37.png""]]]","","[5]","color",242,3,5,225,326.228508395456,101.228508395456,326.228508395456,101.228508395456,101.228508395456
198,610300,"5c7070519f9392000150023c",1988.59999990463,"","[5]","[122]",122,22,58.5872563482308,58.5872563482308,36.5872563482308,33,0,1,0,149.062000047648,0,0,"[[[""img/mask7.png""]]]","","[5]","color",22,3,5,225,418.587256348231,166.412743651769,58.5872563482308,193.587256348231,166.412743651769
216,652495,"5c7070519f9392000150023c",2150.79999995232,"","[4,2,0]","[178,327,108]",178,178,169.944895369431,169.944895369431,351.944895369431,351,0,3,0,154.45599997614,0,0,"[[[""img/mask10.png""],[""img/mask19.png""],[""img/mask72.png""]]]","","[4,2,0]","color",178,3,4,270,529.944895369431,100.055104630569,169.944895369431,259.944895369431,100.055104630569
226,677743,"5c7070519f9392000150023c",1563.79999995232,"","[5]","[128]",128,172,164.002828124717,164.002828124717,352.002828124717,350,0,1,0,158.172999999952,0,0,"[[[""img/mask30.png""]]]","","[5]","color",172,3,5,225,524.002828124717,60.9971718752825,164.002828124717,299.002828124717,60.9971718752825
232,690325,"5c7070519f9392000150023c",1486.69999992847,"","[4,0,3]","[55,235,124]",55,145,257.827806698094,257.827806698094,112.827806698094,113,0,3,0,151.827000047662,0,0,"[[[""img/mask86.png""],[""img/mask17.png""],[""img/mask74.png""]]]","","[4,0,3]","color",145,3,4,270,257.827806698094,12.1721933019063,257.827806698094,12.1721933019063,12.1721933019063
234,694325,"5c7070519f9392000150023c",1533.69999992847,"","[4]","[247]",247,346,325.157255422744,325.157255422744,339.157255422744,338,0,1,0,151.567000023788,0,0,"[[[""img/mask21.png""]]]","","[4]","color",346,3,4,270,325.157255422744,55.1572554227436,325.157255422744,55.1572554227436,55.1572554227436
238,702293,"5c7070519f9392000150023c",1279.79999995232,"","[4,0,3,5,1]","[347,209,313,64,148]",347,266,264.41790712671,264.41790712671,358.41790712671,359,0,5,0,146.17699997616,0,0,"[[[""img/mask64.png""],[""img/mask44.png""],[""img/mask52.png""],[""img/mask34.png""],[""img/mask36.png""]]]","","[4,0,3,5,1]","color",266,3,4,270,264.41790712671,5.58209287328987,264.41790712671,5.58209287328987,5.58209287328987
240,707081,"5c7070519f9392000150023c",1530.89999997616,"","[2,5,3]","[54,270,193]",54,315,358.858161188209,358.858161188209,43.858161188209,42,0,3,0,144.883000000031,0,0,"[[[""img/mask85.png""],[""img/mask33.png""],[""img/mask33.png""]]]","","[2,5,3]","color",315,3,2,0,-1.14183881179099,1.14183881179099,358.858161188209,1.14183881179099,358.858161188209
246,722267,"5c7070519f9392000150023c",1738.09999990463,"","[1,7,4,6,2]","[126,27,216,330,67]",126,52,51.0769914624057,51.0769914624057,359.076991462406,356,0,5,0,152.111000023899,0,0,"[[[""img/mask11.png""],[""img/mask29.png""],[""img/mask60.png""],[""img/mask28.png""],[""img/mask51.png""]]]","","[1,7,4,6,2]","color",52,3,1,45,51.0769914624057,6.07699146240565,51.0769914624057,6.07699146240565,6.07699146240565
254,738529,"5c7070519f9392000150023c",1522.19999992847,"","[3,5,7,1,0]","[260,18,161,297,51]",260,96,312.925991363981,312.925991363981,216.925991363981,217,0,5,0,148.45599997614,0,0,"[[[""img/mask59.png""],[""img/mask33.png""],[""img/mask94.png""],[""img/mask77.png""],[""img/mask8.png""]]]","","[3,5,7,1,0]","color",96,3,3,315,312.925991363981,2.07400863601879,312.925991363981,2.07400863601879,2.07400863601879
274,785707,"5c7070519f9392000150023c",2047.79999995232,"","[7,2,4,5,1]","[238,122,90,175,152]",238,238,131.765773256413,131.765773256413,253.765773256413,251,0,5,0,148.325000047684,0,0,"[[[""img/mask50.png""],[""img/mask60.png""],[""img/mask89.png""],[""img/mask72.png""],[""img/mask89.png""]]]","","[7,2,4,5,1]","color",238,3,7,135,131.765773256413,3.23422674358716,131.765773256413,3.23422674358716,3.23422674358716
280,797763,"5c7070519f9392000150023c",1878,"","[6,5,7]","[151,264,27]",151,204,180,180,336,334,0,3,0,143.058000023826,0,0,"[[[""img/mask28.png""],[""img/mask76.png""],[""img/mask48.png""]]]","","[6,5,7]","color",204,3,6,180,180,0,180,0,0
290,821563,"5c7070519f9392000150023c",1194.10000002384,"","[0,3,4,6,7]","[337,239,208,126,265]",337,214,88.2276953308038,88.2276953308038,234.227695330804,231,0,5,0,155.736000047647,0,0,"[[[""img/mask30.png""],[""img/mask10.png""],[""img/mask37.png""],[""img/mask90.png""],[""img/mask76.png""]]]","","[0,3,4,6,7]","color",214,3,0,90,88.2276953308038,1.77230466919622,88.2276953308038,1.77230466919622,1.77230466919622
298,842737,"5c7070519f9392000150023c",1384.89999997616,"","[3,5,4,7,1]","[221,150,345,49,72]",221,60,316.632882236944,316.632882236944,256.632882236944,256,0,5,0,153.869999999995,0,0,"[[[""img/mask73.png""],[""img/mask14.png""],[""img/mask93.png""],[""img/mask67.png""],[""img/mask46.png""]]]","","[3,5,4,7,1]","color",60,3,3,315,316.632882236944,1.63288223694417,316.632882236944,1.63288223694417,1.63288223694417
300,848591,"5c7070519f9392000150023c",1401,"","[7,4,6,2,3]","[324,298,45,188,107]",324,313,141.428440855197,141.428440855197,188.428440855197,185,0,5,0,154.590999952285,0,0,"[[[""img/mask84.png""],[""img/mask35.png""],[""img/mask76.png""],[""img/mask70.png""],[""img/mask40.png""]]]","","[7,4,6,2,3]","color",313,3,7,135,141.428440855197,6.42844085519735,141.428440855197,6.42844085519735,6.42844085519735
306,861219,"5c7070519f9392000150023c",1286.60000002384,"","[0,7,4]","[26,215,325]",26,128,87.6083271793876,87.6083271793876,319.608327179388,316,0,3,0,153.943999976153,0,0,"[[[""img/mask93.png""],[""img/mask39.png""],[""img/mask33.png""]]]","","[0,7,4]","color",128,3,0,90,87.6083271793876,2.39167282061237,87.6083271793876,2.39167282061237,2.39167282061237
314,878491,"5c7070519f9392000150023c",1913.20000004768,"","[6]","[317]",317,32,359.546826494087,359.546826494087,327.546826494087,326,0,1,0,157.820999999996,0,0,"[[[""img/mask84.png""]]]","","[6]","color",32,3,6,180,359.546826494087,179.546826494087,359.546826494087,179.546826494087,179.546826494087
316,883505,"5c7070519f9392000150023c",2774.39999997616,"","[3]","[45]",45,130,316.095040040044,316.095040040044,186.095040040044,186,0,1,0,150.76299997617,0,0,"[[[""img/mask7.png""]]]","","[3]","color",130,3,3,315,316.095040040044,1.09504004004384,316.095040040044,1.09504004004384,1.09504004004384
318,897615,"5c7070519f9392000150023c",1405.5,"","[0,3,5,2,4]","[185,118,50,288,229]",185,172,94.3435529305031,94.3435529305031,282.343552930503,279,0,5,0,153.025000023888,0,0,"[[[""img/mask55.png""],[""img/mask33.png""],[""img/mask72.png""],[""img/mask24.png""],[""img/mask65.png""]]]","","[0,3,5,2,4]","color",172,3,0,90,94.3435529305031,4.34355293050312,94.3435529305031,4.34355293050312,4.34355293050312
336,936075,"5c7070519f9392000150023c",2020.10000002384,"","[6,3,4]","[310,65,0]",310,97,175.734336711011,175.734336711011,78.7343367110108,77,0,3,0,153.271999952267,0,0,"[[[""img/mask43.png""],[""img/mask72.png""],[""img/mask27.png""]]]","","[6,3,4]","color",97,3,6,180,175.734336711011,4.26566328898917,175.734336711011,4.26566328898917,4.26566328898917
352,1001627,"5c7070519f9392000150023c",2090.39999997616,"","[5,7,1]","[62,144,101]",62,264,228.16576257921,228.16576257921,324.16576257921,324,0,3,0,155.392999976175,0,0,"[[[""img/mask80.png""],[""img/mask47.png""],[""img/mask59.png""]]]","","[5,7,1]","color",264,3,5,225,228.16576257921,3.16576257920988,228.16576257921,3.16576257920988,3.16576257920988
364,1028949,"5c7070519f9392000150023c",2058.90000009537,"","[3,2,5]","[171,202,245]",171,228,295.232284557322,295.232284557322,67.2322845573217,67,0,3,0,146.286999952281,0,0,"[[[""img/mask44.png""],[""img/mask18.png""],[""img/mask69.png""]]]","","[3,2,5]","color",228,3,3,315,295.232284557322,19.7677154426783,295.232284557322,19.7677154426783,19.7677154426783
368,1037487,"5c7070519f9392000150023c",1623.20000004768,"","[3,0,5]","[16,165,341]",16,178,316.733287701976,316.733287701976,138.733287701976,138,0,3,0,149.360999952303,0,0,"[[[""img/mask75.png""],[""img/mask11.png""],[""img/mask17.png""]]]","","[3,0,5]","color",178,3,3,315,316.733287701976,1.73328770197611,316.733287701976,1.73328770197611,1.73328770197611
378,1063593,"5c7070519f9392000150023c",1592.60000002384,"","[6,0,2,3,1]","[216,167,131,54,257]",216,60,176.69991527903,176.69991527903,116.69991527903,115,0,5,0,146.297999976203,0,0,"[[[""img/mask4.png""],[""img/mask56.png""],[""img/mask49.png""],[""img/mask20.png""],[""img/mask65.png""]]]","","[6,0,2,3,1]","color",60,3,6,180,176.69991527903,3.30008472097003,176.69991527903,3.30008472097003,3.30008472097003
380,1067341,"5c7070519f9392000150023c",1354.90000009537,"","[5,6,1,3,4]","[96,333,172,57,269]",96,269,219.269471732999,219.269471732999,310.269471732999,310,0,5,0,158.255999952322,0,0,"[[[""img/mask40.png""],[""img/mask88.png""],[""img/mask73.png""],[""img/mask50.png""],[""img/mask16.png""]]]","","[5,6,1,3,4]","color",269,3,5,225,219.269471732999,5.73052826700092,219.269471732999,5.73052826700092,5.73052826700092
384,1075113,"5c7070519f9392000150023c",1554.29999995232,"","[4]","[305]",305,325,65.3018477388636,65.3018477388636,100.301847738864,97,0,1,0,155.305999976117,0,0,"[[[""img/mask47.png""]]]","","[4]","color",325,3,4,270,425.301847738864,155.301847738864,65.3018477388636,155.301847738864,204.698152261136
386,1078997,"5c7070519f9392000150023c",1619.60000002384,"","[3,2,5]","[181,240,27]",181,322,309.233186714169,309.233186714169,347.233186714169,347,0,3,0,145.400000023888,0,0,"[[[""img/mask90.png""],[""img/mask5.png""],[""img/mask67.png""]]]","","[3,2,5]","color",322,3,3,315,309.233186714169,5.76681328583066,309.233186714169,5.76681328583066,5.76681328583066
388,1084471,"5c7070519f9392000150023c",3173.90000009537,"","[7]","[109]",109,124,241.00251768482,241.00251768482,117.00251768482,117,0,1,0,148.383999976097,0,0,"[[[""img/mask74.png""]]]","","[7]","color",124,3,7,135,-118.99748231518,106.00251768482,241.00251768482,253.99748231518,106.00251768482
394,1097079,"5c7070519f9392000150023c",1287.39999997616,"","[3,6,5]","[336,67,202]",336,264,318.421816852554,318.421816852554,54.4218168525541,54,0,3,0,147.426000047708,0,0,"[[[""img/mask82.png""],[""img/mask50.png""],[""img/mask44.png""]]]","","[3,6,5]","color",264,3,3,315,318.421816852554,3.42181685255412,318.421816852554,3.42181685255412,3.42181685255412
396,1101945,"5c7070519f9392000150023c",1366.80000007153,"","[2,3,0,1,5]","[30,343,100,162,303]",30,30,356.123161380805,356.123161380805,326.123161380805,325,0,5,0,148.626999976113,0,0,"[[[""img/mask44.png""],[""img/mask49.png""],[""img/mask31.png""],[""img/mask6.png""],[""img/mask38.png""]]]","","[2,3,0,1,5]","color",30,3,2,0,-3.87683861919538,3.87683861919538,356.123161380805,3.87683861919538,356.123161380805
404,1120609,"5c7070519f9392000150023c",1616.29999995232,"","[3]","[287]",287,50,167.50142383139,167.50142383139,117.50142383139,115,0,1,0,149.26600002381,0,0,"[[[""img/mask46.png""]]]","","[3]","color",50,3,3,315,527.50142383139,147.49857616861,167.50142383139,212.50142383139,147.49857616861
406,1126851,"5c7070519f9392000150023c",2136.69999992847,"","[0,6,5]","[24,343,286]",24,335,341.406504210706,341.406504210706,6.40650421070552,5,0,3,0,145.401000047568,0,0,"[[[""img/mask24.png""],[""img/mask86.png""],[""img/mask56.png""]]]","","[0,6,5]","color",335,3,0,90,-18.5934957892945,108.593495789294,341.406504210706,108.593495789294,251.406504210706
410,1134513,"5c7070519f9392000150023c",1409.79999995232,"","[5]","[2]",2,67,195.227109035857,195.227109035857,128.227109035857,127,0,1,0,144.001000047661,0,0,"[[[""img/mask70.png""]]]","","[5]","color",67,3,5,225,195.227109035857,29.7728909641426,195.227109035857,29.7728909641426,29.7728909641426
414,1142579,"5c7070519f9392000150023c",1419.59999990463,"","[3,4,6]","[311,86,63]",311,179,316.107380352353,316.107380352353,137.107380352353,136,0,3,0,148.283999952255,0,0,"[[[""img/mask17.png""],[""img/mask84.png""],[""img/mask60.png""]]]","","[3,4,6]","color",179,3,3,315,316.107380352353,1.10738035235255,316.107380352353,1.10738035235255,1.10738035235255
416,1146429,"5c7070519f9392000150023c",1600,"","[1,7,2]","[123,145,311]",123,251,45.3525770432255,45.3525770432255,154.352577043225,151,0,3,0,148.612999952398,0,0,"[[[""img/mask98.png""],[""img/mask38.png""],[""img/mask69.png""]]]","","[1,7,2]","color",251,3,1,45,45.3525770432255,0.352577043225459,45.3525770432255,0.352577043225459,0.352577043225459
446,1218447,"5c7070519f9392000150023c",1648.20000004768,"","[2,3,5,4,7]","[278,169,29,1,237]",278,117,10.7686486280711,10.7686486280711,253.768648628071,252,0,5,0,142.790000000037,0,0,"[[[""img/mask12.png""],[""img/mask84.png""],[""img/mask88.png""],[""img/mask42.png""],[""img/mask65.png""]]]","","[2,3,5,4,7]","color",117,3,2,0,10.7686486280711,10.7686486280711,10.7686486280711,10.7686486280711,10.7686486280711
470,1270931,"5c7070519f9392000150023c",1810.19999992847,"","[4,6,1]","[167,258,358]",167,186,267.565166008508,267.565166008508,81.5651660085081,82,0,3,0,145.429999976186,0,0,"[[[""img/mask82.png""],[""img/mask16.png""],[""img/mask13.png""]]]","","[4,6,1]","color",186,3,4,270,267.565166008508,2.43483399149193,267.565166008508,2.43483399149193,2.43483399149193
482,1298693,"5c7070519f9392000150023c",1283.29999995232,"","[1,3,7,2,5]","[231,47,270,75,159]",231,213,46.605217469958,46.605217469958,193.605217469958,191,0,5,0,147.840999952285,0,0,"[[[""img/mask72.png""],[""img/mask25.png""],[""img/mask41.png""],[""img/mask72.png""],[""img/mask60.png""]]]","","[1,3,7,2,5]","color",213,3,1,45,46.605217469958,1.60521746995803,46.605217469958,1.60521746995803,1.60521746995803
488,1311501,"5c7070519f9392000150023c",1699,"","[7]","[251]",251,232,312.065297059863,312.065297059863,80.0652970598632,79,0,1,0,145.084999976214,0,0,"[[[""img/mask99.png""]]]","","[7]","color",232,3,7,135,-47.9347029401368,177.065297059863,312.065297059863,182.934702940137,177.065297059863
492,1319951,"5c7070519f9392000150023c",1709.20000004768,"","[7,3,6,0,4]","[33,245,290,108,11]",33,96,137.119190130368,137.119190130368,41.1191901303682,40,0,5,0,150.488999952329,0,0,"[[[""img/mask17.png""],[""img/mask11.png""],[""img/mask2.png""],[""img/mask93.png""],[""img/mask80.png""]]]","","[7,3,6,0,4]","color",96,3,7,135,137.119190130368,2.1191901303682,137.119190130368,2.1191901303682,2.1191901303682
494,1323971,"5c7070519f9392000150023c",1760,"","[1]","[25]",25,215,287.350709136129,287.350709136129,72.3507091361287,72,0,1,0,144.333999952301,0,0,"[[[""img/mask61.png""]]]","","[1]","color",215,3,1,45,-72.6492908638713,117.649290863871,287.350709136129,117.649290863871,242.350709136129
20,113370,"5cb41e6bcdcbe90001b2ace4",3361.09999999404,"","[3,2,5]","[97,55,235]",97,32,260.120705700951,260.120705700951,228.120705700951,228,0,3,0,146.943000023835,0,0,"[[[""img/mask53.png""],[""img/mask39.png""],[""img/mask70.png""]]]","","[3,2,5]","color",32,4,3,315,260.120705700951,54.8792942990494,260.120705700951,54.8792942990494,54.8792942990494
22,120271,"5cb41e6bcdcbe90001b2ace4",3530,"","[3,0,6,5,2]","[247,65,320,126,37]",247,99,355.928487003264,355.928487003264,256.928487003264,255,0,5,0,153.107000017888,0,0,"[[[""img/mask76.png""],[""img/mask21.png""],[""img/mask29.png""],[""img/mask10.png""],[""img/mask79.png""]]]","","[3,0,6,5,2]","color",99,4,3,315,355.928487003264,40.9284870032638,355.928487003264,40.9284870032638,40.9284870032638
34,160452,"5cb41e6bcdcbe90001b2ace4",2852.90000000596,"","[3]","[201]",201,202,1.2867951471935,1.2867951471935,159.286795147194,158,0,1,0,148.159000000014,0,0,"[[[""img/mask94.png""]]]","","[3]","color",202,4,3,315,361.286795147194,46.2867951471935,1.2867951471935,46.2867951471935,313.713204852806
40,180720,"5cb41e6bcdcbe90001b2ace4",2212.59999999404,"","[2]","[172]",172,196,188.172755698439,188.172755698439,352.172755698439,351,0,1,0,149.24400001191,0,0,"[[[""img/mask46.png""]]]","","[2]","color",196,4,2,0,-171.827244301561,171.827244301561,188.172755698439,171.827244301561,188.172755698439
52,212079,"5cb41e6bcdcbe90001b2ace4",3128.90000000596,"","[1,3,2,7,6]","[95,283,26,219,134]",95,125,126.960542070014,126.960542070014,1.96054207001389,359,0,5,0,148.157000023843,0,0,"[[[""img/mask78.png""],[""img/mask98.png""],[""img/mask36.png""],[""img/mask18.png""],[""img/mask75.png""]]]","","[1,3,2,7,6]","color",125,4,1,45,126.960542070014,81.9605420700139,126.960542070014,81.9605420700139,81.9605420700139
58,257437,"5cb41e6bcdcbe90001b2ace4",2520.5,"","[6]","[328]",328,151,163.352360500548,163.352360500548,12.3523605005476,10,0,1,0,148.362000011926,0,0,"[[[""img/mask64.png""]]]","","[6]","color",151,4,6,180,163.352360500548,16.6476394994524,163.352360500548,16.6476394994524,16.6476394994524
62,267737,"5cb41e6bcdcbe90001b2ace4",2478.19999998808,"","[1]","[299]",299,103,202.973177431562,202.973177431562,99.9731774315617,99,0,1,0,151.797000023827,0,0,"[[[""img/mask38.png""]]]","","[1]","color",103,4,1,45,-157.026822568438,157.973177431562,202.973177431562,202.026822568438,157.973177431562
64,272616,"5cb41e6bcdcbe90001b2ace4",2599.09999999404,"","[0]","[27]",27,91,199.01148456104,199.01148456104,108.01148456104,107,0,1,0,146.440000023867,0,0,"[[[""img/mask27.png""]]]","","[0]","color",91,4,0,90,-160.98851543896,109.01148456104,199.01148456104,250.98851543896,109.01148456104
68,285440,"5cb41e6bcdcbe90001b2ace4",2263.80000001192,"","[4,7,1]","[94,67,181]",94,327,310.776944008189,310.776944008189,343.776944008189,344,0,3,0,152.125,0,0,"[[[""img/mask53.png""],[""img/mask72.png""],[""img/mask69.png""]]]","","[4,7,1]","color",327,4,4,270,310.776944008189,40.7769440081887,310.776944008189,40.7769440081887,40.7769440081887
74,302554,"5cb41e6bcdcbe90001b2ace4",3537.19999998808,"","[3]","[320]",320,349,171.51748656255,171.51748656255,182.51748656255,180,0,1,0,147.829000005964,0,0,"[[[""img/mask79.png""]]]","","[3]","color",349,4,3,315,531.517486562551,143.48251343745,171.51748656255,216.517486562551,143.48251343745
76,308870,"5cb41e6bcdcbe90001b2ace4",2936.5,"","[1]","[230]",230,253,255.094035750491,255.094035750491,2.09403575049072,2,0,1,0,151.819000000018,0,0,"[[[""img/mask67.png""]]]","","[1]","color",253,4,1,45,-104.905964249509,149.905964249509,255.094035750491,149.905964249509,210.094035750491
84,331819,"5cb41e6bcdcbe90001b2ace4",4829.30000001192,"","[6,5,3,7,1]","[333,222,89,112,154]",333,216,241.556559801038,241.556559801038,25.5565598010381,25,0,5,0,146.63000002387,0,0,"[[[""img/mask91.png""],[""img/mask55.png""],[""img/mask46.png""],[""img/mask100.png""],[""img/mask73.png""]]]","","[6,5,3,7,1]","color",216,4,6,180,241.556559801038,61.5565598010381,241.556559801038,61.5565598010381,61.5565598010381
94,356266,"5cb41e6bcdcbe90001b2ace4",1982.5,"","[4,0,2,6,1]","[351,47,128,276,219]",351,51,200.544591850799,200.544591850799,149.544591850799,148,0,5,0,147.388000023842,0,0,"[[[""img/mask14.png""],[""img/mask30.png""],[""img/mask87.png""],[""img/mask55.png""],[""img/mask50.png""]]]","","[4,0,2,6,1]","color",51,4,4,270,200.544591850799,69.4554081492012,200.544591850799,69.4554081492012,69.4554081492012
96,359937,"5cb41e6bcdcbe90001b2ace4",1486.59999999404,"","[7]","[33]",33,54,183.878173443155,183.878173443155,129.878173443155,128,0,1,0,152.388000023842,0,0,"[[[""img/mask27.png""]]]","","[7]","color",54,4,7,135,-176.121826556845,48.8781734431554,183.878173443155,311.121826556845,48.8781734431554
102,412836,"5cb41e6bcdcbe90001b2ace4",1636.60000002384,"","[6]","[199]",199,337,332.068470475845,332.068470475845,355.068470475845,354,0,1,0,152.304999999993,0,0,"[[[""img/mask97.png""]]]","","[6]","color",337,4,6,180,332.068470475845,152.068470475845,332.068470475845,152.068470475845,152.068470475845
106,422138,"5cb41e6bcdcbe90001b2ace4",1579.80000001192,"","[6]","[196]",196,8,166.396800679194,166.396800679194,158.396800679194,156,0,1,0,147.864000023867,0,0,"[[[""img/mask58.png""]]]","","[6]","color",8,4,6,180,166.396800679194,13.6031993208059,166.396800679194,13.6031993208059,13.6031993208059
114,439936,"5cb41e6bcdcbe90001b2ace4",1728.69999998808,"","[1,5,4]","[334,152,121]",334,333,174.187547077229,174.187547077229,201.187547077229,200,0,3,0,152.815000000002,0,0,"[[[""img/mask23.png""],[""img/mask24.png""],[""img/mask25.png""]]]","","[1,5,4]","color",333,4,1,45,174.187547077229,129.187547077229,174.187547077229,129.187547077229,129.187547077229
122,458820,"5cb41e6bcdcbe90001b2ace4",2645,"","[4]","[303]",303,73,179.891134237568,179.891134237568,106.891134237568,105,0,1,0,152.697000023851,0,0,"[[[""img/mask48.png""]]]","","[4]","color",73,4,4,270,539.891134237568,90.1088657624318,179.891134237568,269.891134237568,90.1088657624318
124,463320,"5cb41e6bcdcbe90001b2ace4",2353.59999999404,"","[0]","[65]",65,144,27.8837011051821,27.8837011051821,243.883701105182,242,0,1,0,153.772000017867,0,0,"[[[""img/mask97.png""]]]","","[0]","color",144,4,0,90,27.8837011051821,62.1162988948179,27.8837011051821,62.1162988948179,62.1162988948179
126,468083,"5cb41e6bcdcbe90001b2ace4",2201.79999998212,"","[4,6,0]","[252,18,51]",252,109,190.347540218339,190.347540218339,81.3475402183393,80,0,3,0,147.920999999973,0,0,"[[[""img/mask44.png""],[""img/mask77.png""],[""img/mask31.png""]]]","","[4,6,0]","color",109,4,4,270,190.347540218339,79.6524597816607,190.347540218339,79.6524597816607,79.6524597816607
128,475121,"5cb41e6bcdcbe90001b2ace4",4671.40000000596,"","[5,1,6,3,0]","[326,77,144,270,17]",326,184,252.342500730833,252.342500730833,68.3425007308332,68,0,5,0,150.805000005988,0,0,"[[[""img/mask91.png""],[""img/mask1.png""],[""img/mask54.png""],[""img/mask18.png""],[""img/mask18.png""]]]","","[5,1,6,3,0]","color",184,4,5,225,252.342500730833,27.3425007308332,252.342500730833,27.3425007308332,27.3425007308332
130,480182,"5cb41e6bcdcbe90001b2ace4",2932.59999999404,"","[2]","[157]",157,132,184.887078888921,184.887078888921,52.887078888921,51,0,1,0,148.103000023868,0,0,"[[[""img/mask94.png""]]]","","[2]","color",132,4,2,0,-175.112921111079,175.112921111079,184.887078888921,175.112921111079,184.887078888921
144,583794,"5cb41e6bcdcbe90001b2ace4",1336.90000000596,"","[0,5,6]","[31,113,182]",31,100,175.094369502909,175.094369502909,75.0943695029089,73,0,3,0,152.789000023855,0,0,"[[[""img/mask41.png""],[""img/mask64.png""],[""img/mask79.png""]]]","","[0,5,6]","color",100,4,0,90,175.094369502909,85.0943695029089,175.094369502909,85.0943695029089,85.0943695029089
152,614019,"5cb41e6bcdcbe90001b2ace4",2011.40000000596,"","[4]","[237]",237,182,180.53020984065,180.53020984065,358.53020984065,357,0,1,0,148.988000017824,0,0,"[[[""img/mask43.png""]]]","","[4]","color",182,4,4,270,180.53020984065,89.4697901593501,180.53020984065,89.4697901593501,89.4697901593501
154,618483,"5cb41e6bcdcbe90001b2ace4",2352.90000000596,"","[0]","[180]",180,342,72.4488380025865,72.4488380025865,90.4488380025865,87,0,1,0,147.823000017903,0,0,"[[[""img/mask44.png""]]]","","[0]","color",342,4,0,90,72.4488380025865,17.5511619974135,72.4488380025865,17.5511619974135,17.5511619974135
162,634887,"5cb41e6bcdcbe90001b2ace4",1802.80000001192,"","[7]","[52]",52,163,66.9395194532167,66.9395194532167,263.939519453217,261,0,1,0,151.334000023897,0,0,"[[[""img/mask5.png""]]]","","[7]","color",163,4,7,135,66.9395194532167,68.0604805467833,66.9395194532167,68.0604805467833,68.0604805467833
170,654203,"5cb41e6bcdcbe90001b2ace4",1519.5,"","[2,5,3,0,6]","[251,125,304,352,96]",251,140,57.4250999302447,57.4250999302447,277.425099930245,274,0,5,0,148.026000017882,0,0,"[[[""img/mask100.png""],[""img/mask45.png""],[""img/mask75.png""],[""img/mask28.png""],[""img/mask27.png""]]]","","[2,5,3,0,6]","color",140,4,2,0,57.4250999302447,57.4250999302447,57.4250999302447,57.4250999302447,57.4250999302447
178,998224,"5cb41e6bcdcbe90001b2ace4",6015.79999998212,"","[1,2,7,4,6]","[352,146,249,106,54]",352,140,299.103890090222,299.103890090222,159.103890090222,160,0,5,0,149.636000000057,0,0,"[[[""img/mask97.png""],[""img/mask42.png""],[""img/mask94.png""],[""img/mask73.png""],[""img/mask72.png""]]]","","[1,2,7,4,6]","color",140,4,1,45,-60.8961099097778,105.896109909778,299.103890090222,105.896109909778,254.103890090222
186,1016243,"5cb41e6bcdcbe90001b2ace4",1434.30000001192,"","[7,3,2,1,4]","[244,90,209,326,37]",244,72,175.628230449512,175.628230449512,103.628230449512,102,0,5,0,147.155000017839,0,0,"[[[""img/mask10.png""],[""img/mask93.png""],[""img/mask79.png""],[""img/mask82.png""],[""img/mask63.png""]]]","","[7,3,2,1,4]","color",72,4,7,135,175.628230449512,40.6282304495124,175.628230449512,40.6282304495124,40.6282304495124
200,1048187,"5cb41e6bcdcbe90001b2ace4",2293.20000001788,"","[6,3,1]","[147,235,183]",147,176,233.350673630768,233.350673630768,57.3506736307676,57,0,3,0,148.215000005905,0,0,"[[[""img/mask89.png""],[""img/mask43.png""],[""img/mask41.png""]]]","","[6,3,1]","color",176,4,6,180,233.350673630768,53.3506736307676,233.350673630768,53.3506736307676,53.3506736307676
202,1052065,"5cb41e6bcdcbe90001b2ace4",1436.70000001788,"","[3]","[77]",77,226,279.119154041735,279.119154041735,53.1191540417353,53,0,1,0,147.759000011953,0,0,"[[[""img/mask33.png""]]]","","[3]","color",226,4,3,315,279.119154041735,35.8808459582647,279.119154041735,35.8808459582647,35.8808459582647
204,1055912,"5cb41e6bcdcbe90001b2ace4",1733.19999998808,"","[7,5,4,2,1]","[145,179,8,277,104]",145,156,192.487532861423,192.487532861423,36.4875328614233,36,0,5,0,148.194000000018,0,0,"[[[""img/mask82.png""],[""img/mask88.png""],[""img/mask40.png""],[""img/mask64.png""],[""img/mask82.png""]]]","","[7,5,4,2,1]","color",156,4,7,135,-167.512467138577,57.4875328614233,192.487532861423,302.512467138577,57.4875328614233
224,1104699,"5cb41e6bcdcbe90001b2ace4",1237.30000001192,"","[5,6,1]","[51,296,333]",51,343,200.240489784895,200.240489784895,217.240489784895,216,0,3,0,150.26600002381,0,0,"[[[""img/mask72.png""],[""img/mask65.png""],[""img/mask7.png""]]]","","[5,6,1]","color",343,4,5,225,200.240489784895,24.7595102151049,200.240489784895,24.7595102151049,24.7595102151049
230,1119165,"5cb41e6bcdcbe90001b2ace4",1395.09999999404,"","[3,6,0,4,2]","[49,134,99,222,307]",49,171,315.850834124359,315.850834124359,144.850834124359,145,0,5,0,153.916000023833,0,0,"[[[""img/mask18.png""],[""img/mask82.png""],[""img/mask77.png""],[""img/mask67.png""],[""img/mask52.png""]]]","","[3,6,0,4,2]","color",171,4,3,315,315.850834124359,0.850834124358812,315.850834124359,0.850834124358812,0.850834124358812
236,1129315,"5cb41e6bcdcbe90001b2ace4",1270.19999998808,"","[7,4,1,2,3]","[333,280,92,130,198]",333,138,13.8765200592193,13.8765200592193,235.876520059219,234,0,5,0,146.074000011897,0,0,"[[[""img/mask45.png""],[""img/mask60.png""],[""img/mask42.png""],[""img/mask72.png""],[""img/mask98.png""]]]","","[7,4,1,2,3]","color",138,4,7,135,13.8765200592193,121.123479940781,13.8765200592193,121.123479940781,121.123479940781
248,1151381,"5cb41e6bcdcbe90001b2ace4",1070.40000000596,"","[0,7,3,5,1]","[296,156,198,15,135]",296,221,155.454323203268,155.454323203268,294.454323203268,292,0,5,0,150.215000005905,0,0,"[[[""img/mask68.png""],[""img/mask52.png""],[""img/mask94.png""],[""img/mask40.png""],[""img/mask7.png""]]]","","[0,7,3,5,1]","color",221,4,0,90,155.454323203268,65.4543232032682,155.454323203268,65.4543232032682,65.4543232032682
254,1163616,"5cb41e6bcdcbe90001b2ace4",1236.70000001788,"","[5]","[259]",259,286,342.041338212504,342.041338212504,56.0413382125037,55,0,1,0,147.488000017824,0,0,"[[[""img/mask95.png""]]]","","[5]","color",286,4,5,225,342.041338212504,117.041338212504,342.041338212504,117.041338212504,117.041338212504
256,1167815,"5cb41e6bcdcbe90001b2ace4",1703.40000000596,"","[4,3,5,2,1]","[182,294,151,68,122]",182,261,213.827805718703,213.827805718703,312.827805718703,313,0,5,0,149.872000005911,0,0,"[[[""img/mask59.png""],[""img/mask63.png""],[""img/mask58.png""],[""img/mask98.png""],[""img/mask67.png""]]]","","[4,3,5,2,1]","color",261,4,4,270,213.827805718703,56.1721942812974,213.827805718703,56.1721942812974,56.1721942812974
284,1230815,"5cb41e6bcdcbe90001b2ace4",1741,"","[5,2,6,1,7]","[265,54,208,118,352]",265,82,302.059857881582,302.059857881582,220.059857881582,220,0,5,0,147.896000023931,0,0,"[[[""img/mask83.png""],[""img/mask74.png""],[""img/mask62.png""],[""img/mask67.png""],[""img/mask97.png""]]]","","[5,2,6,1,7]","color",82,4,5,225,302.059857881582,77.0598578815822,302.059857881582,77.0598578815822,77.0598578815822
294,1249816,"5cb41e6bcdcbe90001b2ace4",1254.90000000596,"","[7,1,0]","[88,276,111]",88,27,178.361229370685,178.361229370685,151.361229370685,149,0,3,0,146.138000005856,0,0,"[[[""img/mask53.png""],[""img/mask74.png""],[""img/mask27.png""]]]","","[7,1,0]","color",27,4,7,135,178.361229370685,43.361229370685,178.361229370685,43.361229370685,43.361229370685
306,1274631,"5cb41e6bcdcbe90001b2ace4",2085.90000000596,"","[7,0,4]","[35,210,262]",35,279,31.2672912832132,31.2672912832132,112.267291283213,111,0,3,0,148.199000011897,0,0,"[[[""img/mask75.png""],[""img/mask85.png""],[""img/mask73.png""]]]","","[7,0,4]","color",279,4,7,135,31.2672912832132,103.732708716787,31.2672912832132,103.732708716787,103.732708716787
312,1287679,"5cb41e6bcdcbe90001b2ace4",2015.90000000596,"","[2,6,4,1,5]","[218,22,54,289,141]",218,344,258.72394534425,258.72394534425,274.72394534425,275,0,5,0,149.004000023939,0,0,"[[[""img/mask78.png""],[""img/mask28.png""],[""img/mask56.png""],[""img/mask54.png""],[""img/mask64.png""]]]","","[2,6,4,1,5]","color",344,4,2,0,-101.27605465575,101.27605465575,258.72394534425,101.27605465575,258.72394534425
318,1307308,"5cb41e6bcdcbe90001b2ace4",2679.80000001192,"","[2,6,0]","[216,70,104]",216,104,111.287578860275,111.287578860275,7.28757886027532,4,0,3,0,147.464000012027,0,0,"[[[""img/mask24.png""],[""img/mask95.png""],[""img/mask15.png""]]]","","[2,6,0]","color",104,4,2,0,111.287578860275,111.287578860275,111.287578860275,111.287578860275,111.287578860275
348,1374133,"5cb41e6bcdcbe90001b2ace4",1236.40000000596,"","[2,0,5,6,7]","[185,271,106,224,300]",185,236,20.0246396821791,20.0246396821791,144.024639682179,142,0,5,0,148.622000017902,0,0,"[[[""img/mask11.png""],[""img/mask76.png""],[""img/mask99.png""],[""img/mask92.png""],[""img/mask52.png""]]]","","[2,0,5,6,7]","color",236,4,2,0,20.0246396821791,20.0246396821791,20.0246396821791,20.0246396821791,20.0246396821791
350,1377782,"5cb41e6bcdcbe90001b2ace4",1369.90000000596,"","[6,5,3]","[245,54,130]",245,130,261.884897672086,261.884897672086,131.884897672086,133,0,3,0,149.348000006052,0,0,"[[[""img/mask17.png""],[""img/mask91.png""],[""img/mask66.png""]]]","","[6,5,3]","color",130,4,6,180,261.884897672086,81.8848976720863,261.884897672086,81.8848976720863,81.8848976720863
352,1381682,"5cb41e6bcdcbe90001b2ace4",1470.59999999404,"","[3,0,1]","[122,78,100]",122,21,307.500449908157,307.500449908157,286.500449908157,286,0,3,0,153.002000011969,0,0,"[[[""img/mask41.png""],[""img/mask42.png""],[""img/mask16.png""]]]","","[3,0,1]","color",21,4,3,315,307.500449908157,7.49955009184259,307.500449908157,7.49955009184259,7.49955009184259
362,1406200,"5cb41e6bcdcbe90001b2ace4",1686.5,"","[0,7,1,6,5]","[93,131,171,264,285]",93,359,142.209982985097,142.209982985097,143.209982985097,141,0,5,0,146.290000011912,0,0,"[[[""img/mask92.png""],[""img/mask78.png""],[""img/mask19.png""],[""img/mask37.png""],[""img/mask100.png""]]]","","[0,7,1,6,5]","color",359,4,0,90,142.209982985097,52.2099829850967,142.209982985097,52.2099829850967,52.2099829850967
386,1455516,"5cb41e6bcdcbe90001b2ace4",2053.70000001788,"","[5,7,6,1,4]","[98,322,45,170,69]",98,258,82.812392376507,82.812392376507,184.812392376507,183,0,5,0,147.301000011852,0,0,"[[[""img/mask26.png""],[""img/mask89.png""],[""img/mask11.png""],[""img/mask76.png""],[""img/mask45.png""]]]","","[5,7,6,1,4]","color",258,4,5,225,442.812392376507,142.187607623493,82.812392376507,217.812392376507,142.187607623493
392,1470166,"5cb41e6bcdcbe90001b2ace4",2053.60000002384,"","[5,4,2]","[53,311,332]",53,318,135.728354003575,135.728354003575,177.728354003575,175,0,3,0,151.515000017826,0,0,"[[[""img/mask17.png""],[""img/mask95.png""],[""img/mask99.png""]]]","","[5,4,2]","color",318,4,5,225,495.728354003575,89.2716459964249,135.728354003575,270.728354003575,89.2716459964249
412,1514960,"5cb41e6bcdcbe90001b2ace4",1189.20000001788,"","[5,2,6]","[242,217,1]",242,131,343.226517106772,343.226517106772,212.226517106772,212,0,3,0,148.618000011891,0,0,"[[[""img/mask83.png""],[""img/mask61.png""],[""img/mask63.png""]]]","","[5,2,6]","color",131,4,5,225,343.226517106772,118.226517106772,343.226517106772,118.226517106772,118.226517106772
416,1522633,"5cb41e6bcdcbe90001b2ace4",1752.40000000596,"","[5]","[259]",259,302,21.4911653935149,21.4911653935149,79.4911653935149,77,0,1,0,150.276000000071,0,0,"[[[""img/mask90.png""]]]","","[5]","color",302,4,5,225,381.491165393515,156.491165393515,21.4911653935149,156.491165393515,203.508834606485
422,1535249,"5cb41e6bcdcbe90001b2ace4",1302.70000001788,"","[5,6,1,7,3]","[126,347,155,84,226]",126,120,97.3421894056116,97.3421894056116,337.342189405612,334,0,5,0,152.331999999937,0,0,"[[[""img/mask94.png""],[""img/mask85.png""],[""img/mask14.png""],[""img/mask100.png""],[""img/mask91.png""]]]","","[5,6,1,7,3]","color",120,4,5,225,457.342189405612,127.657810594388,97.3421894056116,232.342189405612,127.657810594388
424,1539300,"5cb41e6bcdcbe90001b2ace4",1786.60000002384,"","[7,6,5,4,3]","[64,187,164,86,233]",64,250,50.7127684487706,50.7127684487706,160.712768448771,158,0,5,0,149.156000011833,0,0,"[[[""img/mask8.png""],[""img/mask94.png""],[""img/mask49.png""],[""img/mask47.png""],[""img/mask65.png""]]]","","[7,6,5,4,3]","color",250,4,7,135,50.7127684487706,84.2872315512294,50.7127684487706,84.2872315512294,84.2872315512294
428,1550350,"5cb41e6bcdcbe90001b2ace4",1137.5,"","[6,3,0]","[261,2,94]",261,6,181.645042433586,181.645042433586,175.645042433586,174,0,3,0,146.389000023948,0,0,"[[[""img/mask43.png""],[""img/mask48.png""],[""img/mask46.png""]]]","","[6,3,0]","color",6,4,6,180,181.645042433586,1.64504243358587,181.645042433586,1.64504243358587,1.64504243358587
430,1553650,"5cb41e6bcdcbe90001b2ace4",1070.19999998808,"","[6,2,0]","[160,31,272]",160,102,343.161349840392,343.161349840392,241.161349840392,241,0,3,0,147.894000017783,0,0,"[[[""img/mask37.png""],[""img/mask73.png""],[""img/mask89.png""]]]","","[6,2,0]","color",102,4,6,180,343.161349840392,163.161349840392,343.161349840392,163.161349840392,163.161349840392
436,1565275,"5cb41e6bcdcbe90001b2ace4",1261.79999998212,"","[4,1,7]","[64,108,306]",64,323,193.251601771938,193.251601771938,230.251601771938,229,0,3,0,152.94299999997,0,0,"[[[""img/mask60.png""],[""img/mask44.png""],[""img/mask51.png""]]]","","[4,1,7]","color",323,4,4,270,193.251601771938,76.7483982280621,193.251601771938,76.7483982280621,76.7483982280621
456,1609400,"5cb41e6bcdcbe90001b2ace4",1337,"","[0,1,7]","[292,14,179]",292,129,169.767919924139,169.767919924139,40.7679199241392,39,0,3,0,148.202000000048,0,0,"[[[""img/mask22.png""],[""img/mask19.png""],[""img/mask44.png""]]]","","[0,1,7]","color",129,4,0,90,169.767919924139,79.7679199241392,169.767919924139,79.7679199241392,79.7679199241392
484,2104762,"5cb41e6bcdcbe90001b2ace4",999.800000011921,"","[4,2,6]","[319,358,213]",319,8,121.504885554085,121.504885554085,113.504885554085,110,0,3,0,148.372999999905,0,0,"[[[""img/mask26.png""],[""img/mask88.png""],[""img/mask9.png""]]]","","[4,2,6]","color",8,4,4,270,481.504885554085,148.495114445915,121.504885554085,211.504885554085,148.495114445915
488,2111546,"5cb41e6bcdcbe90001b2ace4",1174.59999999404,"","[6,7,1]","[69,154,316]",69,298,215.329508363653,215.329508363653,277.329508363653,276,0,3,0,150.342000006,0,0,"[[[""img/mask61.png""],[""img/mask37.png""],[""img/mask84.png""]]]","","[6,7,1]","color",298,4,6,180,215.329508363653,35.3295083636527,215.329508363653,35.3295083636527,35.3295083636527
490,2115779,"5cb41e6bcdcbe90001b2ace4",2152.39999997616,"","[5]","[97]",97,93,151.204812854805,151.204812854805,58.2048128548047,55,0,1,0,147.253000005847,0,0,"[[[""img/mask64.png""]]]","","[5]","color",93,4,5,225,511.204812854805,73.7951871451953,151.204812854805,286.204812854805,73.7951871451953
34,208637,"5d86d05f9854a60019240621",2531,"","[7,5,2]","[75,213,342]",75,267,309.518255964712,309.518255964712,42.5182559647116,42,0,3,0,155.160000000003,0,0,"[[[""img/mask86.png""],[""img/mask90.png""],[""img/mask89.png""]]]","","[7,5,2]","color",267,5,7,135,-50.4817440352884,174.518255964712,309.518255964712,185.481744035288,174.518255964712
42,228726,"5d86d05f9854a60019240621",2151,"","[4]","[20]",20,246,163.917983093852,163.917983093852,277.917983093852,277,0,1,0,157.959999999992,0,0,"[[[""img/mask28.png""]]]","","[4]","color",246,5,4,270,523.917983093852,106.082016906148,163.917983093852,253.917983093852,106.082016906148
60,343805,"5d86d05f9854a60019240621",3932,"","[6,3,7]","[240,29,7]",240,284,7.44591383897505,7.44591383897505,83.4459138389751,81,0,3,0,154.140000000014,0,0,"[[[""img/mask75.png""],[""img/mask64.png""],[""img/mask70.png""]]]","","[6,3,7]","color",284,5,6,180,7.44591383897505,172.554086161025,7.44591383897505,172.554086161025,172.554086161025
62,349110,"5d86d05f9854a60019240621",2602,"","[5]","[67]",67,59,180,180,121,120,0,1,0,150.479999999981,0,0,"[[[""img/mask90.png""]]]","","[5]","color",59,5,5,225,180,45,180,45,45
66,360941,"5d86d05f9854a60019240621",3518,"","[6,1,0]","[27,295,202]",27,146,107.691626746575,107.691626746575,321.691626746575,318,0,3,0,152.179999999993,0,0,"[[[""img/mask57.png""],[""img/mask56.png""],[""img/mask5.png""]]]","","[6,1,0]","color",146,5,6,180,107.691626746575,72.3083732534247,107.691626746575,72.3083732534247,72.3083732534247
86,410654,"5d86d05f9854a60019240621",2330,"","[7,2,0,3,4]","[274,313,171,78,193]",274,322,340.004935606637,340.004935606637,18.0049356066371,17,0,5,0,146.280000000028,0,0,"[[[""img/mask83.png""],[""img/mask2.png""],[""img/mask86.png""],[""img/mask26.png""],[""img/mask77.png""]]]","","[7,2,0,3,4]","color",322,5,7,135,-19.9950643933629,154.995064393363,340.004935606637,154.995064393363,205.004935606637
98,478078,"5d86d05f9854a60019240621",1387,"","[1]","[178]",178,222,52.0290792406542,52.0290792406542,190.029079240654,188,0,1,0,146.119999999995,0,0,"[[[""img/mask9.png""]]]","","[1]","color",222,5,1,45,52.0290792406542,7.02907924065421,52.0290792406542,7.02907924065421,7.02907924065421
108,502605,"5d86d05f9854a60019240621",1564,"","[7,5,2]","[5,55,178]",5,270,326.675826522338,326.675826522338,56.6758265223382,56,0,3,0,158.140000000014,0,0,"[[[""img/mask16.png""],[""img/mask55.png""],[""img/mask3.png""]]]","","[7,5,2]","color",270,5,7,135,-33.3241734776618,168.324173477662,326.675826522338,168.324173477662,191.675826522338
114,515118,"5d86d05f9854a60019240621",1710,"","[7]","[228]",228,111,273.244013581011,273.244013581011,162.244013581011,163,0,1,0,153.859999999986,0,0,"[[[""img/mask48.png""]]]","","[7]","color",111,5,7,135,-86.7559864189891,138.244013581011,273.244013581011,221.755986418989,138.244013581011
116,520278,"5d86d05f9854a60019240621",2387,"","[1,5,4,6,0]","[120,297,225,149,331]",120,275,288.767099792013,288.767099792013,13.7670997920134,14,0,5,0,147.179999999993,0,0,"[[[""img/mask22.png""],[""img/mask39.png""],[""img/mask33.png""],[""img/mask71.png""],[""img/mask73.png""]]]","","[1,5,4,6,0]","color",275,5,1,45,-71.2329002079866,116.232900207987,288.767099792013,116.232900207987,243.767099792013
138,609175,"5d86d05f9854a60019240621",1799,"","[4]","[256]",256,178,121.915111587723,121.915111587723,303.915111587723,301,0,1,0,141.680000000051,0,0,"[[[""img/mask29.png""]]]","","[4]","color",178,5,4,270,481.915111587723,148.084888412277,121.915111587723,211.915111587723,148.084888412277
146,629062,"5d86d05f9854a60019240621",3154,"","[6,3,5,0,7]","[250,46,114,278,149]",250,204,1.63092197517407,1.63092197517407,157.630921975174,156,0,5,0,142.060000000056,0,0,"[[[""img/mask21.png""],[""img/mask23.png""],[""img/mask42.png""],[""img/mask57.png""],[""img/mask48.png""]]]","","[6,3,5,0,7]","color",204,5,6,180,1.63092197517407,178.369078024826,1.63092197517407,178.369078024826,178.369078024826
152,642846,"5d86d05f9854a60019240621",1988,"","[2]","[233]",233,303,1.79798238783409,1.79798238783409,58.7979823878341,58,0,1,0,154.079999999958,0,0,"[[[""img/mask99.png""]]]","","[2]","color",303,5,2,0,1.79798238783409,1.79798238783409,1.79798238783409,1.79798238783409,1.79798238783409
156,651350,"5d86d05f9854a60019240621",2260,"","[6,4,1]","[343,247,281]",343,57,53.2531657567,53.2531657567,356.2531657567,354,0,3,0,152.420000000042,0,0,"[[[""img/mask18.png""],[""img/mask35.png""],[""img/mask71.png""]]]","","[6,4,1]","color",57,5,6,180,53.2531657567,126.7468342433,53.2531657567,126.7468342433,126.7468342433
160,659886,"5d86d05f9854a60019240621",1962,"","[1]","[258]",258,32,207.035789541106,207.035789541106,175.035789541106,174,0,1,0,157.819999999949,0,0,"[[[""img/mask17.png""]]]","","[1]","color",32,5,1,45,-152.964210458894,162.035789541106,207.035789541106,197.964210458894,162.035789541106
172,687566,"5d86d05f9854a60019240621",2774,"","[2,4,1]","[18,296,270]",18,9,196.927042627359,196.927042627359,187.927042627359,187,0,3,0,149.439999999944,0,0,"[[[""img/mask24.png""],[""img/mask82.png""],[""img/mask51.png""]]]","","[2,4,1]","color",9,5,2,0,-163.072957372641,163.072957372641,196.927042627359,163.072957372641,196.927042627359
182,746357,"5d86d05f9854a60019240621",1900,"","[2,7,0,6,3]","[113,306,8,212,76]",113,78,118.849202672762,118.849202672762,40.8492026727624,38,0,5,0,150.319999999949,0,0,"[[[""img/mask48.png""],[""img/mask3.png""],[""img/mask77.png""],[""img/mask9.png""],[""img/mask27.png""]]]","","[2,7,0,6,3]","color",78,5,2,0,118.849202672762,118.849202672762,118.849202672762,118.849202672762,118.849202672762
184,751670,"5d86d05f9854a60019240621",2595,"","[5,1,7,3,6]","[183,358,54,320,30]",183,168,266.28902024575,266.28902024575,98.2890202457501,99,0,5,0,147,0,0,"[[[""img/mask73.png""],[""img/mask52.png""],[""img/mask27.png""],[""img/mask91.png""],[""img/mask1.png""]]]","","[5,1,7,3,6]","color",168,5,5,225,266.28902024575,41.2890202457501,266.28902024575,41.2890202457501,41.2890202457501
196,780070,"5d86d05f9854a60019240621",2294,"","[2,5,3,1,6]","[245,329,174,126,88]",245,238,307.388866671038,307.388866671038,69.3888666710383,69,0,5,0,142.020000000019,0,0,"[[[""img/mask72.png""],[""img/mask55.png""],[""img/mask78.png""],[""img/mask43.png""],[""img/mask7.png""]]]","","[2,5,3,1,6]","color",238,5,2,0,-52.6111333289617,52.6111333289617,307.388866671038,52.6111333289617,307.388866671038
202,793742,"5d86d05f9854a60019240621",2067,"","[3,2,5]","[111,197,7]",111,149,8.91585766324128,8.91585766324128,219.915857663241,219,0,3,0,148.040000000037,0,0,"[[[""img/mask49.png""],[""img/mask33.png""],[""img/mask10.png""]]]","","[3,2,5]","color",149,5,3,315,368.915857663241,53.9158576632413,8.91585766324128,53.9158576632413,306.084142336759
208,810352,"5d86d05f9854a60019240621",2725,"","[7,1,2]","[119,282,51]",119,47,211.560583112394,211.560583112394,164.560583112394,164,0,3,0,154.040000000037,0,0,"[[[""img/mask20.png""],[""img/mask73.png""],[""img/mask78.png""]]]","","[7,1,2]","color",47,5,7,135,-148.439416887606,76.5605831123944,211.560583112394,283.439416887606,76.5605831123944
212,817982,"5d86d05f9854a60019240621",1424,"","[5,7,2,0,6]","[329,33,249,356,94]",329,151,325.314486341369,325.314486341369,174.314486341369,174,0,5,0,149.520000000019,0,0,"[[[""img/mask30.png""],[""img/mask67.png""],[""img/mask58.png""],[""img/mask73.png""],[""img/mask42.png""]]]","","[5,7,2,0,6]","color",151,5,5,225,325.314486341369,100.314486341369,325.314486341369,100.314486341369,100.314486341369
218,913190,"5d86d05f9854a60019240621",1648,"","[5,2,7]","[242,350,208]",242,84,300.779808017199,300.779808017199,216.779808017199,216,0,3,0,157.939999999944,0,0,"[[[""img/mask65.png""],[""img/mask20.png""],[""img/mask97.png""]]]","","[5,2,7]","color",84,5,5,225,300.779808017199,75.7798080171988,300.779808017199,75.7798080171988,75.7798080171988
226,928462,"5d86d05f9854a60019240621",1221,"","[3,6,2]","[344,283,102]",344,351,323.290079786803,323.290079786803,332.290079786803,332,0,3,0,147.939999999944,0,0,"[[[""img/mask30.png""],[""img/mask70.png""],[""img/mask29.png""]]]","","[3,6,2]","color",351,5,3,315,323.290079786803,8.29007978680295,323.290079786803,8.29007978680295,8.29007978680295
232,940590,"5d86d05f9854a60019240621",1616,"","[3,5,0,2,4]","[78,11,206,103,43]",78,247,247.71050518457,247.71050518457,0.710505184570025,0,0,5,0,157.300000000047,0,0,"[[[""img/mask1.png""],[""img/mask39.png""],[""img/mask67.png""],[""img/mask30.png""],[""img/mask52.png""]]]","","[3,5,0,2,4]","color",247,5,3,315,247.71050518457,67.28949481543,247.71050518457,67.28949481543,67.28949481543
248,977470,"5d86d05f9854a60019240621",3112,"","[7]","[174]",174,323,128.479540461809,128.479540461809,165.479540461809,162,0,1,0,148.719999999972,0,0,"[[[""img/mask79.png""]]]","","[7]","color",323,5,7,135,128.479540461809,6.52045953819066,128.479540461809,6.52045953819066,6.52045953819066
260,1038510,"5d86d05f9854a60019240621",1869,"","[6]","[31]",31,113,229.513390106209,229.513390106209,116.513390106209,117,0,1,0,146.160000000033,0,0,"[[[""img/mask55.png""]]]","","[6]","color",113,5,6,180,229.513390106209,49.5133901062093,229.513390106209,49.5133901062093,49.5133901062093
262,1042086,"5d86d05f9854a60019240621",1194,"","[2]","[39]",39,45,25.1295903844077,25.1295903844077,340.129590384408,338,0,1,0,154.199999999953,0,0,"[[[""img/mask79.png""]]]","","[2]","color",45,5,2,0,25.1295903844077,25.1295903844077,25.1295903844077,25.1295903844077,25.1295903844077
264,1046551,"5d86d05f9854a60019240621",2108,"","[6,5,0,2,1]","[274,199,227,112,44]",274,197,218.427490244984,218.427490244984,21.427490244984,21,0,5,0,151.140000000014,0,0,"[[[""img/mask82.png""],[""img/mask52.png""],[""img/mask73.png""],[""img/mask84.png""],[""img/mask32.png""]]]","","[6,5,0,2,1]","color",197,5,6,180,218.427490244984,38.427490244984,218.427490244984,38.427490244984,38.427490244984
266,1050535,"5d86d05f9854a60019240621",1643,"","[5,3,4,2,1]","[153,60,228,122,281]",153,134,178.907327331958,178.907327331958,44.9073273319577,43,0,5,0,150.260000000009,0,0,"[[[""img/mask88.png""],[""img/mask31.png""],[""img/mask11.png""],[""img/mask70.png""],[""img/mask7.png""]]]","","[5,3,4,2,1]","color",134,5,5,225,538.907327331958,46.0926726680423,178.907327331958,313.907327331958,46.0926726680423
272,1063574,"5d86d05f9854a60019240621",2331,"","[6,1,0,7,5]","[285,167,143,102,355]",285,345,41.4262183531646,41.4262183531646,56.4262183531645,54,0,5,0,150.179999999935,0,0,"[[[""img/mask49.png""],[""img/mask8.png""],[""img/mask8.png""],[""img/mask83.png""],[""img/mask46.png""]]]","","[6,1,0,7,5]","color",345,5,6,180,41.4262183531646,138.573781646835,41.4262183531646,138.573781646835,138.573781646835
280,1082935,"5d86d05f9854a60019240621",2509,"","[6]","[103]",103,101,72.3230560878804,72.3230560878804,331.32305608788,328,0,1,0,142.620000000112,0,0,"[[[""img/mask86.png""]]]","","[6]","color",101,5,6,180,72.3230560878804,107.67694391212,72.3230560878804,107.67694391212,107.67694391212
290,1105646,"5d86d05f9854a60019240621",2371,"","[1,4,2]","[109,28,179]",109,293,188.901840870531,188.901840870531,255.901840870531,256,0,3,0,141.679999999935,0,0,"[[[""img/mask37.png""],[""img/mask5.png""],[""img/mask19.png""]]]","","[1,4,2]","color",293,5,1,45,-171.098159129469,143.901840870531,188.901840870531,216.098159129469,143.901840870531
294,1116102,"5d86d05f9854a60019240621",2459,"","[1]","[200]",200,274,283.285476384836,283.285476384836,9.28547638483576,9,0,1,0,146.300000000047,0,0,"[[[""img/mask81.png""]]]","","[1]","color",274,5,1,45,-76.7145236151642,121.714523615164,283.285476384836,121.714523615164,238.285476384836
300,1137166,"5d86d05f9854a60019240621",2190,"","[2,5,0,3,4]","[180,83,13,332,266]",180,308,283.421346733043,283.421346733043,335.421346733043,336,0,5,0,149.659999999916,0,0,"[[[""img/mask36.png""],[""img/mask76.png""],[""img/mask95.png""],[""img/mask53.png""],[""img/mask66.png""]]]","","[2,5,0,3,4]","color",308,5,2,0,-76.5786532669567,76.5786532669567,283.421346733043,76.5786532669567,283.421346733043
302,1141110,"5d86d05f9854a60019240621",1584,"","[7,0,1]","[143,214,76]",143,106,270.404557373175,270.404557373175,164.404557373175,165,0,3,0,153.719999999972,0,0,"[[[""img/mask89.png""],[""img/mask7.png""],[""img/mask11.png""]]]","","[7,0,1]","color",106,5,7,135,-89.5954426268252,135.404557373175,270.404557373175,224.595442626825,135.404557373175
304,1145414,"5d86d05f9854a60019240621",1956,"","[1,7,5]","[108,143,322]",108,8,191.596460222969,191.596460222969,183.596460222969,183,0,3,0,153.040000000037,0,0,"[[[""img/mask38.png""],[""img/mask41.png""],[""img/mask77.png""]]]","","[1,7,5]","color",8,5,1,45,-168.403539777031,146.596460222969,191.596460222969,213.403539777031,146.596460222969
306,1149934,"5d86d05f9854a60019240621",1776,"","[5,4,1]","[204,340,107]",204,72,237.067349426615,237.067349426615,165.067349426615,165,0,3,0,157.060000000056,0,0,"[[[""img/mask3.png""],[""img/mask13.png""],[""img/mask54.png""]]]","","[5,4,1]","color",72,5,5,225,237.067349426615,12.0673494266152,237.067349426615,12.0673494266152,12.0673494266152
318,1174750,"5d86d05f9854a60019240621",1625,"","[7]","[230]",230,322,110.53562799951,110.53562799951,148.53562799951,146,0,1,0,151.780000000028,0,0,"[[[""img/mask55.png""]]]","","[7]","color",322,5,7,135,110.53562799951,24.4643720004898,110.53562799951,24.4643720004898,24.4643720004898
322,1185271,"5d86d05f9854a60019240621",1695,"","[1,6,2]","[298,184,47]",298,233,198.09001799904,198.09001799904,325.09001799904,325,0,3,0,157.860000000102,0,0,"[[[""img/mask8.png""],[""img/mask7.png""],[""img/mask83.png""]]]","","[1,6,2]","color",233,5,1,45,-161.90998200096,153.09001799904,198.09001799904,206.90998200096,153.09001799904
324,1191958,"5d86d05f9854a60019240621",3699,"","[6,2,0,4,5]","[24,225,351,282,55]",24,83,79.5089338092586,79.5089338092586,356.508933809259,353,0,5,0,158.179999999935,0,0,"[[[""img/mask12.png""],[""img/mask44.png""],[""img/mask55.png""],[""img/mask11.png""],[""img/mask11.png""]]]","","[6,2,0,4,5]","color",83,5,6,180,79.5089338092586,100.491066190741,79.5089338092586,100.491066190741,100.491066190741
334,1214558,"5d86d05f9854a60019240621",2016,"","[0,5,2,3,7]","[199,59,290,80,114]",199,235,109.396766233106,109.396766233106,234.396766233106,231,0,5,0,143.540000000037,0,0,"[[[""img/mask47.png""],[""img/mask36.png""],[""img/mask6.png""],[""img/mask7.png""],[""img/mask13.png""]]]","","[0,5,2,3,7]","color",235,5,0,90,109.396766233106,19.3967662331056,109.396766233106,19.3967662331056,19.3967662331056
338,1245054,"5d86d05f9854a60019240621",1429,"","[6,1,3,2,5]","[61,270,143,310,8]",61,193,16.2698375152608,16.2698375152608,183.269837515261,181,0,5,0,150.800000000047,0,0,"[[[""img/mask87.png""],[""img/mask62.png""],[""img/mask76.png""],[""img/mask80.png""],[""img/mask80.png""]]]","","[6,1,3,2,5]","color",193,5,6,180,16.2698375152608,163.730162484739,16.2698375152608,163.730162484739,163.730162484739
