trial_index,time_elapsed,subject_id,rt,response,position_of_items,colors_of_items,color_of_target,wheel_spin,response_angle,physical_response_angle,reported_color_angle,reported_color_discrete,which_test,set_size,wheel_num_options,actual_mask_duration,actual_stim_duration,CMDispTime,maskArray,maskRotation,item_positions,task,randomSpinAmount,subNo,targetLocation,targetLocationDeg,colorCorrected,distance,colorUnCorrected,distance1,distance2
22,223674,"558943fafdf99b5ccd435cb3",6525,"","[6]","[241]",241,155,22.7516794780556,22.7516794780556,227.751679478056,225,0,1,0,144.763999999996,156.103999999992,150,"[[[""img/mask96.png""]]]","","[6]","color",155,1,6,180,22.7516794780556,157.248320521944,22.7516794780556,157.248320521944,157.248320521944
24,230609,"558943fafdf99b5ccd435cb3",2180,"","[3,2,5,0,1]","[175,52,258,19,345]",175,130,119.854769134535,119.854769134535,349.854769134535,346,0,5,0,144.646000000008,8.98600000000442,16,"[[[""img/mask41.png""],[""img/mask35.png""],[""img/mask3.png""],[""img/mask57.png""],[""img/mask79.png""]]]","","[3,2,5,0,1]","color",130,1,3,315,479.854769134535,164.854769134535,119.854769134535,164.854769134535,195.145230865465
26,238474,"558943fafdf99b5ccd435cb3",4043,"","[6,0,3,7,2]","[198,167,117,314,46]",198,179,216.637405804597,216.637405804597,37.6374058045967,37,0,5,0,143.405999999988,12.7460000000137,16,"[[[""img/mask27.png""],[""img/mask83.png""],[""img/mask9.png""],[""img/mask99.png""],[""img/mask5.png""]]]","","[6,0,3,7,2]","color",179,1,6,180,216.637405804597,36.6374058045967,216.637405804597,36.6374058045967,36.6374058045967
28,244802,"558943fafdf99b5ccd435cb3",2772,"","[0]","[162]",162,95,287.845903984988,287.845903984988,192.845903984988,193,0,1,0,144.102000000014,75.44200000001,83,"[[[""img/mask35.png""]]]","","[0]","color",95,1,0,90,-72.1540960150123,162.154096015012,287.845903984988,162.154096015012,197.845903984988
30,251842,"558943fafdf99b5ccd435cb3",3163,"","[1]","[107]",107,196,175.399258135244,175.399258135244,339.399258135244,338,0,1,0,144.83600000001,9.17600000000675,16,"[[[""img/mask25.png""]]]","","[1]","color",196,1,1,45,175.399258135244,130.399258135244,175.399258135244,130.399258135244,130.399258135244
32,259122,"558943fafdf99b5ccd435cb3",3427,"","[0,2,5]","[73,291,341]",73,110,39.6116006389619,39.6116006389619,289.611600638962,287,0,3,0,144.222000000009,88.5620000000054,83,"[[[""img/mask80.png""],[""img/mask18.png""],[""img/mask42.png""]]]","","[0,2,5]","color",110,1,0,90,39.6116006389619,50.3883993610381,39.6116006389619,50.3883993610381,50.3883993610381
34,265746,"558943fafdf99b5ccd435cb3",2551,"","[0]","[10]",10,244,259.314362903999,259.314362903999,15.3143629039993,16,0,1,0,144.92200000002,143.261999999988,150,"[[[""img/mask56.png""]]]","","[0]","color",244,1,0,90,-100.685637096001,169.314362903999,259.314362903999,190.685637096001,169.314362903999
36,271938,"558943fafdf99b5ccd435cb3",2143,"","[0]","[319]",319,276,300.070785808816,300.070785808816,24.070785808816,25,0,1,0,144.657999999996,81.9980000000214,83,"[[[""img/mask40.png""]]]","","[0]","color",276,1,0,90,-59.929214191184,149.929214191184,300.070785808816,149.929214191184,210.070785808816
38,283154,"558943fafdf99b5ccd435cb3",2610,"","[2,1,3,6,0]","[69,199,304,109,130]",69,331,151.075281215018,151.075281215018,180.075281215018,178,0,5,0,143.228000000003,152.568000000028,150,"[[[""img/mask34.png""],[""img/mask99.png""],[""img/mask26.png""],[""img/mask15.png""],[""img/mask58.png""]]]","","[2,1,3,6,0]","color",331,1,2,0,151.075281215018,151.075281215018,151.075281215018,151.075281215018,151.075281215018
40,288842,"558943fafdf99b5ccd435cb3",1881,"","[2]","[8]",8,78,280.506830888138,280.506830888138,202.506830888138,202,0,1,0,144.637999999977,8.97800000000279,16,"[[[""img/mask30.png""]]]","","[2]","color",78,1,2,0,-79.4931691118622,79.4931691118622,280.506830888138,79.4931691118622,280.506830888138
42,295314,"558943fafdf99b5ccd435cb3",2337,"","[1,0,2]","[177,90,53]",177,16,194.009785366189,194.009785366189,178.009785366189,177,0,3,0,144.064000000013,81.4039999999804,83,"[[[""img/mask46.png""],[""img/mask63.png""],[""img/mask37.png""]]]","","[1,0,2]","color",16,1,1,45,-165.990214633811,149.009785366189,194.009785366189,210.990214633811,149.009785366189
44,302387,"558943fafdf99b5ccd435cb3",2809,"","[4,3,0]","[115,351,159]",115,92,32.321843829172,32.321843829172,300.321843829172,298,0,3,0,143.799999999988,8.14000000001397,16,"[[[""img/mask83.png""],[""img/mask87.png""],[""img/mask3.png""]]]","","[4,3,0]","color",92,1,4,270,392.321843829172,122.321843829172,32.321843829172,122.321843829172,237.678156170828
46,308962,"558943fafdf99b5ccd435cb3",3135,"","[7]","[241]",241,288,191.776351561378,191.776351561378,263.776351561378,262,0,1,0,144.549999999988,12.890000000014,16,"[[[""img/mask14.png""]]]","","[7]","color",288,1,7,135,-168.223648438622,56.776351561378,191.776351561378,303.223648438622,56.776351561378
50,323506,"558943fafdf99b5ccd435cb3",1713,"","[3]","[234]",234,108,129.706959708379,129.706959708379,21.7069597083791,19,0,1,0,144.57799999998,88.9180000000051,83,"[[[""img/mask31.png""]]]","","[3]","color",108,1,3,315,489.706959708379,174.706959708379,129.706959708379,174.706959708379,185.293040291621
52,334162,"558943fafdf99b5ccd435cb3",5653,"","[2,6,3]","[218,109,74]",218,231,102.898319789965,102.898319789965,231.898319789965,228,0,3,0,144.976000000024,155.315999999992,150,"[[[""img/mask89.png""],[""img/mask2.png""],[""img/mask60.png""]]]","","[2,6,3]","color",231,1,2,0,102.898319789965,102.898319789965,102.898319789965,102.898319789965,102.898319789965
56,348274,"558943fafdf99b5ccd435cb3",3699,"","[1,4,6,5,2]","[276,179,229,101,359]",276,268,243.003835610342,243.003835610342,335.003835610342,336,0,5,0,144,21.3400000000256,16,"[[[""img/mask80.png""],[""img/mask50.png""],[""img/mask48.png""],[""img/mask14.png""],[""img/mask41.png""]]]","","[1,4,6,5,2]","color",268,1,1,45,-116.996164389658,161.996164389658,243.003835610342,161.996164389658,198.003835610342
60,363474,"558943fafdf99b5ccd435cb3",2101,"","[4]","[21]",21,218,231.262941813156,231.262941813156,13.2629418131557,13,0,1,0,144.32799999998,155.668000000005,150,"[[[""img/mask67.png""]]]","","[4]","color",218,1,4,270,231.262941813156,38.7370581868443,231.262941813156,38.7370581868443,38.7370581868443
62,368569,"558943fafdf99b5ccd435cb3",1563,"","[7]","[9]",9,159,165.668824204054,165.668824204054,6.66882420405406,4,0,1,0,144.435999999987,88.7760000000126,83,"[[[""img/mask6.png""]]]","","[7]","color",159,1,7,135,165.668824204054,30.6688242040541,165.668824204054,30.6688242040541,30.6688242040541
64,373505,"558943fafdf99b5ccd435cb3",1932,"","[3,7,1]","[302,27,76]",302,56,346.841050927399,346.841050927399,290.841050927399,290,0,3,0,144.919999999984,90.2600000000093,83,"[[[""img/mask85.png""],[""img/mask30.png""],[""img/mask87.png""]]]","","[3,7,1]","color",56,1,3,315,346.841050927399,31.8410509273995,346.841050927399,31.8410509273995,31.8410509273995
66,379177,"558943fafdf99b5ccd435cb3",1517,"","[7]","[286]",286,282,105.143677885033,105.143677885033,183.143677885033,180,0,1,0,142.010000000009,8.34999999997672,16,"[[[""img/mask40.png""]]]","","[7]","color",282,1,7,135,105.143677885033,29.8563221149666,105.143677885033,29.8563221149666,29.8563221149666
68,384113,"558943fafdf99b5ccd435cb3",2024,"","[2]","[142]",142,358,230.456921927513,230.456921927513,232.456921927513,232,0,1,0,144.166000000027,20.5059999999939,16,"[[[""img/mask31.png""]]]","","[2]","color",358,1,2,0,-129.543078072487,129.543078072487,230.456921927513,129.543078072487,230.456921927513
70,389410,"558943fafdf99b5ccd435cb3",2321,"","[1,0,7,3,2]","[227,68,317,15,160]",227,181,40.9009867081546,40.9009867081546,219.900986708155,217,0,5,0,144.966000000015,158.305999999982,150,"[[[""img/mask81.png""],[""img/mask31.png""],[""img/mask6.png""],[""img/mask16.png""],[""img/mask7.png""]]]","","[1,0,7,3,2]","color",181,1,1,45,40.9009867081546,4.09901329184538,40.9009867081546,4.09901329184538,4.09901329184538
72,395961,"558943fafdf99b5ccd435cb3",3522,"","[2,0,6,7,3]","[25,190,327,249,350]",25,191,237.582329885032,237.582329885032,46.5823298850316,46,0,5,0,143.751999999979,80.0920000000042,83,"[[[""img/mask94.png""],[""img/mask61.png""],[""img/mask21.png""],[""img/mask92.png""],[""img/mask61.png""]]]","","[2,0,6,7,3]","color",191,1,2,0,-122.417670114968,122.417670114968,237.582329885032,122.417670114968,237.582329885032
74,402577,"558943fafdf99b5ccd435cb3",2488,"","[4,7,5,1,3]","[27,224,128,190,97]",27,236,262.310310039507,262.310310039507,26.3103100395065,27,0,5,0,144.445999999996,17.7860000000219,16,"[[[""img/mask83.png""],[""img/mask7.png""],[""img/mask81.png""],[""img/mask60.png""],[""img/mask66.png""]]]","","[4,7,5,1,3]","color",236,1,4,270,262.310310039507,7.68968996049347,262.310310039507,7.68968996049347,7.68968996049347
80,421434,"558943fafdf99b5ccd435cb3",3961,"","[3,4,1]","[254,86,303]",254,278,130.097127200663,130.097127200663,212.097127200663,209,0,3,0,143.083999999973,155.423999999999,150,"[[[""img/mask3.png""],[""img/mask65.png""],[""img/mask78.png""]]]","","[3,4,1]","color",278,1,3,315,490.097127200663,175.097127200663,130.097127200663,175.097127200663,184.902872799337
82,428802,"558943fafdf99b5ccd435cb3",2746,"","[2,0,1]","[259,76,230]",259,57,315.113313500184,315.113313500184,258.113313500184,259,0,3,0,144.074000000022,157.41399999999,150,"[[[""img/mask97.png""],[""img/mask83.png""],[""img/mask15.png""]]]","","[2,0,1]","color",57,1,2,0,-44.8866864998156,44.8866864998156,315.113313500184,44.8866864998156,315.113313500184
84,435298,"558943fafdf99b5ccd435cb3",3075,"","[7,4,5,1,2]","[242,187,94,305,138]",242,130,103.086402034146,103.086402034146,333.086402034146,331,0,5,0,144.494000000006,78.8339999999735,83,"[[[""img/mask19.png""],[""img/mask33.png""],[""img/mask56.png""],[""img/mask95.png""],[""img/mask16.png""]]]","","[7,4,5,1,2]","color",130,1,7,135,103.086402034146,31.9135979658539,103.086402034146,31.9135979658539,31.9135979658539
90,454626,"558943fafdf99b5ccd435cb3",3404,"","[0,6,5]","[150,58,89]",150,177,73.4833059448201,73.4833059448201,256.48330594482,253,0,3,0,143.733999999997,89.0740000000224,83,"[[[""img/mask70.png""],[""img/mask66.png""],[""img/mask31.png""]]]","","[0,6,5]","color",177,1,0,90,73.4833059448201,16.5166940551799,73.4833059448201,16.5166940551799,16.5166940551799
92,460330,"558943fafdf99b5ccd435cb3",2509,"","[4,1,2]","[214,181,40]",214,353,320.346861132674,320.346861132674,327.346861132674,327,0,3,0,144.469999999972,157.809999999998,150,"[[[""img/mask54.png""],[""img/mask34.png""],[""img/mask34.png""]]]","","[4,1,2]","color",353,1,4,270,320.346861132674,50.3468611326741,320.346861132674,50.3468611326741,50.3468611326741
94,466474,"558943fafdf99b5ccd435cb3",3120,"","[4]","[11]",11,191,200.451264044577,200.451264044577,9.45126404457721,10,0,1,0,144.581999999995,10.9220000000205,16,"[[[""img/mask73.png""]]]","","[4]","color",191,1,4,270,200.451264044577,69.5487359554228,200.451264044577,69.5487359554228,69.5487359554228
96,473858,"558943fafdf99b5ccd435cb3",2254,"","[1,2,5]","[61,151,249]",61,86,3.14774029594726,3.14774029594726,277.147740295947,276,0,3,0,144.251999999979,23.5920000000042,16,"[[[""img/mask49.png""],[""img/mask67.png""],[""img/mask61.png""]]]","","[1,2,5]","color",86,1,1,45,3.14774029594726,41.8522597040527,3.14774029594726,41.8522597040527,41.8522597040527
98,481250,"558943fafdf99b5ccd435cb3",1530,"","[3,4,5]","[80,18,316]",80,275,307.059268106841,307.059268106841,32.0592681068408,32,0,3,0,143.593999999983,7.93400000000838,16,"[[[""img/mask12.png""],[""img/mask28.png""],[""img/mask34.png""]]]","","[3,4,5]","color",275,1,3,315,307.059268106841,7.94073189315918,307.059268106841,7.94073189315918,7.94073189315918
102,494154,"558943fafdf99b5ccd435cb3",2534,"","[7,6,4]","[328,283,245]",328,24,133.527960995539,133.527960995539,109.527960995539,107,0,3,0,144.118000000017,22.4579999999842,16,"[[[""img/mask20.png""],[""img/mask2.png""],[""img/mask33.png""]]]","","[7,6,4]","color",24,1,7,135,133.527960995539,1.47203900446058,133.527960995539,1.47203900446058,1.47203900446058
104,498338,"558943fafdf99b5ccd435cb3",1569,"","[4,0,7,5,3]","[184,248,14,124,328]",184,185,3.88492542547357,3.88492542547357,178.884925425474,177,0,5,0,144.912000000011,8.25199999997858,16,"[[[""img/mask2.png""],[""img/mask98.png""],[""img/mask3.png""],[""img/mask14.png""],[""img/mask68.png""]]]","","[4,0,7,5,3]","color",185,1,4,270,363.884925425474,93.8849254254736,3.88492542547357,93.8849254254736,266.115074574526
106,503130,"558943fafdf99b5ccd435cb3",2028,"","[6,1,3]","[52,125,187]",52,52,288.911748743701,288.911748743701,236.911748743701,237,0,3,0,144.071999999986,23.4120000000112,16,"[[[""img/mask63.png""],[""img/mask29.png""],[""img/mask64.png""]]]","","[6,1,3]","color",52,1,6,180,288.911748743701,108.911748743701,288.911748743701,108.911748743701,108.911748743701
108,510946,"558943fafdf99b5ccd435cb3",4527,"","[7,6,3]","[70,112,322]",70,45,63.2867528626792,63.2867528626792,18.2867528626792,15,0,3,0,144.526000000013,150.86599999998,150,"[[[""img/mask68.png""],[""img/mask35.png""],[""img/mask74.png""]]]","","[7,6,3]","color",45,1,7,135,63.2867528626792,71.7132471373208,63.2867528626792,71.7132471373208,71.7132471373208
114,526778,"558943fafdf99b5ccd435cb3",3042,"","[6]","[209]",209,274,127.993160171897,127.993160171897,213.993160171897,211,0,1,0,143.5,11.8399999999674,16,"[[[""img/mask56.png""]]]","","[6]","color",274,1,6,180,127.993160171897,52.006839828103,127.993160171897,52.006839828103,52.006839828103
116,531602,"558943fafdf99b5ccd435cb3",2001,"","[5,7,0]","[178,259,32]",178,99,95.9691292163836,95.9691292163836,356.969129216384,354,0,3,0,143.93200000003,22.2719999999972,16,"[[[""img/mask38.png""],[""img/mask75.png""],[""img/mask33.png""]]]","","[5,7,0]","color",99,1,5,225,455.969129216384,129.030870783616,95.9691292163836,230.969129216384,129.030870783616
118,537554,"558943fafdf99b5ccd435cb3",2435,"","[0]","[174]",174,182,236.183518033529,236.183518033529,54.1835180335291,54,0,1,0,144.378000000026,13.7179999999935,16,"[[[""img/mask37.png""]]]","","[0]","color",182,1,0,90,-123.816481966471,146.183518033529,236.183518033529,213.816481966471,146.183518033529
120,544722,"558943fafdf99b5ccd435cb3",2588,"","[2,0,1,6,3]","[313,19,50,225,127]",313,207,224.457690884993,224.457690884993,17.4576908849926,17,0,5,0,144.763999999966,154.10400000005,150,"[[[""img/mask73.png""],[""img/mask85.png""],[""img/mask34.png""],[""img/mask22.png""],[""img/mask82.png""]]]","","[2,0,1,6,3]","color",207,1,2,0,-135.542309115007,135.542309115007,224.457690884993,135.542309115007,224.457690884993
122,549642,"558943fafdf99b5ccd435cb3",1992,"","[5,4,1]","[341,296,133]",341,145,323.253869163238,323.253869163238,178.253869163238,178,0,3,0,144.209999999963,89.5500000000466,83,"[[[""img/mask61.png""],[""img/mask65.png""],[""img/mask97.png""]]]","","[5,4,1]","color",145,1,5,225,323.253869163238,98.2538691632381,323.253869163238,98.2538691632381,98.2538691632381
124,556706,"558943fafdf99b5ccd435cb3",3523,"","[1,2,5]","[54,181,112]",54,253,98.7961515081926,98.7961515081926,205.796151508193,202,0,3,0,144.322000000044,81.6620000000112,83,"[[[""img/mask91.png""],[""img/mask60.png""],[""img/mask40.png""]]]","","[1,2,5]","color",253,1,1,45,98.7961515081926,53.7961515081926,98.7961515081926,53.7961515081926,53.7961515081926
132,585706,"558943fafdf99b5ccd435cb3",2140,"","[1]","[234]",234,91,309.165413257409,309.165413257409,218.165413257409,218,0,1,0,143.439999999944,156.780000000028,150,"[[[""img/mask38.png""]]]","","[1]","color",91,1,1,45,-50.8345867425911,95.8345867425911,309.165413257409,95.8345867425911,264.165413257409
134,590594,"558943fafdf99b5ccd435cb3",1945,"","[5]","[290]",290,296,319.219070760971,319.219070760971,23.2190707609706,23,0,1,0,143.569999999949,22.9100000000326,16,"[[[""img/mask35.png""]]]","","[5]","color",296,1,5,225,319.219070760971,94.2190707609706,319.219070760971,94.2190707609706,94.2190707609706
136,595453,"558943fafdf99b5ccd435cb3",2186,"","[7,5,6,1,3]","[328,261,224,41,68]",328,287,117.367225092708,117.367225092708,190.367225092708,187,0,5,0,143.052000000025,8.39199999999255,16,"[[[""img/mask63.png""],[""img/mask61.png""],[""img/mask74.png""],[""img/mask27.png""],[""img/mask73.png""]]]","","[7,5,6,1,3]","color",287,1,7,135,117.367225092708,17.6327749072923,117.367225092708,17.6327749072923,17.6327749072923
140,612666,"558943fafdf99b5ccd435cb3",2785,"","[0]","[238]",238,109,350.309801688753,350.309801688753,241.309801688753,240,0,1,0,144.054000000004,89.3939999999711,83,"[[[""img/mask52.png""]]]","","[0]","color",109,1,0,90,-9.69019831124689,99.6901983112469,350.309801688753,99.6901983112469,260.309801688753
142,619547,"558943fafdf99b5ccd435cb3",3566,"","[7,2,6,4,0]","[181,28,132,329,357]",181,341,46.2278007990315,46.2278007990315,65.2278007990315,62,0,5,0,144.810000000056,90.1500000000233,83,"[[[""img/mask40.png""],[""img/mask70.png""],[""img/mask45.png""],[""img/mask97.png""],[""img/mask38.png""]]]","","[7,2,6,4,0]","color",341,1,7,135,46.2278007990315,88.7721992009685,46.2278007990315,88.7721992009685,88.7721992009685
144,626661,"558943fafdf99b5ccd435cb3",1961,"","[0,1,2]","[73,296,166]",73,72,283.550275341438,283.550275341438,211.550275341438,212,0,3,0,144.128000000026,89.4679999999935,83,"[[[""img/mask92.png""],[""img/mask1.png""],[""img/mask92.png""]]]","","[0,1,2]","color",72,1,0,90,-76.4497246585619,166.449724658562,283.550275341438,166.449724658562,193.550275341438
148,637250,"558943fafdf99b5ccd435cb3",2936,"","[4,0,5]","[127,264,316]",127,268,67.1889550749714,67.1889550749714,159.188955074971,157,0,3,0,144.410000000033,16.75,16,"[[[""img/mask26.png""],[""img/mask48.png""],[""img/mask20.png""]]]","","[4,0,5]","color",268,1,4,270,427.188955074971,157.188955074971,67.1889550749714,157.188955074971,202.811044925029
158,671386,"558943fafdf99b5ccd435cb3",2340,"","[2,7,4]","[50,302,213]",50,339,330.022916825153,330.022916825153,351.022916825153,350,0,3,0,143.35400000005,145.694000000018,150,"[[[""img/mask38.png""],[""img/mask45.png""],[""img/mask18.png""]]]","","[2,7,4]","color",339,1,2,0,-29.9770831748472,29.9770831748472,330.022916825153,29.9770831748472,330.022916825153
160,676923,"558943fafdf99b5ccd435cb3",2294,"","[3,4,0,2,1]","[159,72,184,315,348]",159,50,302.972780638218,302.972780638218,252.972780638218,253,0,5,0,144.464000000036,149.804000000004,150,"[[[""img/mask58.png""],[""img/mask89.png""],[""img/mask64.png""],[""img/mask59.png""],[""img/mask96.png""]]]","","[3,4,0,2,1]","color",50,1,3,315,302.972780638218,12.0272193617821,302.972780638218,12.0272193617821,12.0272193617821
162,682539,"558943fafdf99b5ccd435cb3",2344,"","[2]","[5]",5,73,79.1641161557855,79.1641161557855,6.16411615578545,5,0,1,0,144.908000000054,148.248000000021,150,"[[[""img/mask36.png""]]]","","[2]","color",73,1,2,0,79.1641161557855,79.1641161557855,79.1641161557855,79.1641161557855,79.1641161557855
164,687834,"558943fafdf99b5ccd435cb3",2306,"","[3]","[248]",248,223,7.38702801042093,7.38702801042093,144.387028010421,142,0,1,0,144.028000000049,89.3680000000168,83,"[[[""img/mask73.png""]]]","","[3]","color",223,1,3,315,367.387028010421,52.3870280104209,7.38702801042093,52.3870280104209,307.612971989579
170,706522,"558943fafdf99b5ccd435cb3",1995,"","[2,6,4,7,5]","[359,244,73,269,46]",359,348,3.17327324880396,3.17327324880396,15.173273248804,13,0,5,0,144.26800000004,22.6080000000075,16,"[[[""img/mask22.png""],[""img/mask63.png""],[""img/mask30.png""],[""img/mask16.png""],[""img/mask52.png""]]]","","[2,6,4,7,5]","color",348,1,2,0,3.17327324880396,3.17327324880396,3.17327324880396,3.17327324880396,3.17327324880396
172,712802,"558943fafdf99b5ccd435cb3",2856,"","[5]","[17]",17,10,49.2145908267496,49.2145908267496,39.2145908267496,37,0,1,0,144.717999999993,81.0579999999609,83,"[[[""img/mask37.png""]]]","","[5]","color",10,1,5,225,409.21459082675,175.78540917325,49.2145908267496,184.21459082675,175.78540917325
174,717938,"558943fafdf99b5ccd435cb3",2393,"","[6,0,1,5,4]","[214,95,281,73,40]",214,123,299.268627957775,299.268627957775,176.268627957775,176,0,5,0,144.493999999948,16.8340000000317,16,"[[[""img/mask31.png""],[""img/mask95.png""],[""img/mask5.png""],[""img/mask84.png""],[""img/mask4.png""]]]","","[6,0,1,5,4]","color",123,1,6,180,299.268627957775,119.268627957775,299.268627957775,119.268627957775,119.268627957775
178,734315,"558943fafdf99b5ccd435cb3",1988,"","[0,7,5]","[74,324,219]",74,114,324.789796718561,324.789796718561,210.789796718561,211,0,3,0,144.155999999959,81.4960000000428,83,"[[[""img/mask71.png""],[""img/mask34.png""],[""img/mask60.png""]]]","","[0,7,5]","color",114,1,0,90,-35.2102032814386,125.210203281439,324.789796718561,125.210203281439,234.789796718561
180,742274,"558943fafdf99b5ccd435cb3",3315,"","[7,2,0,1,4]","[24,318,85,182,106]",24,355,137.442762440983,137.442762440983,142.442762440983,140,0,5,0,143.224000000046,88.564000000013,83,"[[[""img/mask85.png""],[""img/mask52.png""],[""img/mask3.png""],[""img/mask24.png""],[""img/mask73.png""]]]","","[7,2,0,1,4]","color",355,1,7,135,137.442762440983,2.44276244098299,137.442762440983,2.44276244098299,2.44276244098299
186,759082,"558943fafdf99b5ccd435cb3",2339,"","[5,1,4]","[309,151,3]",309,115,188.844498002597,188.844498002597,73.8444980025969,72,0,3,0,144.84600000002,19.185999999987,16,"[[[""img/mask17.png""],[""img/mask45.png""],[""img/mask92.png""]]]","","[5,1,4]","color",115,1,5,225,188.844498002597,36.1555019974031,188.844498002597,36.1555019974031,36.1555019974031
188,763762,"558943fafdf99b5ccd435cb3",2170,"","[4,3,0,1,2]","[12,301,75,255,188]",12,55,254.059120418136,254.059120418136,199.059120418136,200,0,5,0,143.652000000002,86.9919999999693,83,"[[[""img/mask68.png""],[""img/mask92.png""],[""img/mask96.png""],[""img/mask17.png""],[""img/mask77.png""]]]","","[4,3,0,1,2]","color",55,1,4,270,254.059120418136,15.9408795818641,254.059120418136,15.9408795818641,15.9408795818641
190,771298,"558943fafdf99b5ccd435cb3",4556,"","[2]","[289]",289,166,95.6115563185212,95.6115563185212,289.611556318521,287,0,1,0,144.445999999996,145.785999999964,150,"[[[""img/mask76.png""]]]","","[2]","color",166,1,2,0,95.6115563185212,95.6115563185212,95.6115563185212,95.6115563185212,95.6115563185212
192,778210,"558943fafdf99b5ccd435cb3",2352,"","[0]","[193]",193,26,237.549114734626,237.549114734626,211.549114734626,211,0,1,0,143.748000000021,86.0879999999888,83,"[[[""img/mask95.png""]]]","","[0]","color",26,1,0,90,-122.450885265374,147.549114734626,237.549114734626,212.450885265374,147.549114734626
194,785674,"558943fafdf99b5ccd435cb3",4233,"","[0,5,3]","[200,2,142]",200,61,269.335410328604,269.335410328604,208.335410328604,208,0,3,0,144.858000000007,21.1979999999749,16,"[[[""img/mask20.png""],[""img/mask96.png""],[""img/mask33.png""]]]","","[0,5,3]","color",61,1,0,90,-90.6645896713958,179.335410328604,269.335410328604,180.664589671396,179.335410328604
198,797010,"558943fafdf99b5ccd435cb3",2542,"","[5,7,0]","[124,47,275]",124,26,296.54093934956,296.54093934956,270.54093934956,270,0,3,0,144.003999999957,22.344000000041,16,"[[[""img/mask91.png""],[""img/mask14.png""],[""img/mask31.png""]]]","","[5,7,0]","color",26,1,5,225,296.54093934956,71.54093934956,296.54093934956,71.54093934956,71.54093934956
200,801994,"558943fafdf99b5ccd435cb3",1704,"","[2]","[210]",210,271,114.00495279287,114.00495279287,203.00495279287,199,0,1,0,144.10400000005,90.4440000000177,83,"[[[""img/mask45.png""]]]","","[2]","color",271,1,2,0,114.00495279287,114.00495279287,114.00495279287,114.00495279287,114.00495279287
204,813946,"558943fafdf99b5ccd435cb3",2440,"","[2,6,4,3,5]","[57,234,4,339,99]",57,248,16.4369058733433,16.4369058733433,128.436905873343,126,0,5,0,144.322000000044,153.662000000011,150,"[[[""img/mask67.png""],[""img/mask3.png""],[""img/mask29.png""],[""img/mask98.png""],[""img/mask56.png""]]]","","[2,6,4,3,5]","color",248,1,2,0,16.4369058733433,16.4369058733433,16.4369058733433,16.4369058733433,16.4369058733433
210,831890,"558943fafdf99b5ccd435cb3",2551,"","[7]","[182]",182,330,7.1832471692278,7.1832471692278,37.1832471692278,36,0,1,0,144.942000000039,155.282000000007,150,"[[[""img/mask1.png""]]]","","[7]","color",330,1,7,135,7.1832471692278,127.816752830772,7.1832471692278,127.816752830772,127.816752830772
214,844162,"558943fafdf99b5ccd435cb3",2973,"","[1]","[27]",27,93,118.343135662548,118.343135662548,25.3431356625483,23,0,1,0,144.467999999993,16.8079999999609,16,"[[[""img/mask37.png""]]]","","[1]","color",93,1,1,45,118.343135662548,73.3431356625483,118.343135662548,73.3431356625483,73.3431356625483
216,850202,"558943fafdf99b5ccd435cb3",2464,"","[4]","[242]",242,27,235.332772787818,235.332772787818,208.332772787818,208,0,1,0,143.206000000006,148.545999999973,150,"[[[""img/mask8.png""]]]","","[4]","color",27,1,4,270,235.332772787818,34.667227212182,235.332772787818,34.667227212182,34.667227212182
224,876970,"558943fafdf99b5ccd435cb3",2666,"","[7,3,5]","[269,182,211]",269,130,339.637209357041,339.637209357041,209.637209357041,209,0,3,0,144.810000000056,11.1500000000233,16,"[[[""img/mask63.png""],[""img/mask36.png""],[""img/mask38.png""]]]","","[7,3,5]","color",130,1,7,135,-20.3627906429585,155.362790642959,339.637209357041,155.362790642959,204.637209357041
226,882394,"558943fafdf99b5ccd435cb3",2224,"","[0,7,3,4,5]","[237,210,320,1,151]",237,310,112.114061374793,112.114061374793,162.114061374793,159,0,5,0,144.241999999969,155.582000000053,150,"[[[""img/mask97.png""],[""img/mask73.png""],[""img/mask75.png""],[""img/mask30.png""],[""img/mask30.png""]]]","","[0,7,3,4,5]","color",310,1,0,90,112.114061374793,22.114061374793,112.114061374793,22.114061374793,22.114061374793
228,887962,"558943fafdf99b5ccd435cb3",2724,"","[6]","[254]",254,275,318.741923952501,318.741923952501,43.741923952501,44,0,1,0,144.706000000006,11.045999999973,16,"[[[""img/mask34.png""]]]","","[6]","color",275,1,6,180,318.741923952501,138.741923952501,318.741923952501,138.741923952501,138.741923952501
230,893513,"558943fafdf99b5ccd435cb3",2640,"","[7,4,3]","[118,175,263]",118,195,125.67040618577,125.67040618577,290.67040618577,289,0,3,0,144.814000000013,16.1539999999804,16,"[[[""img/mask80.png""],[""img/mask87.png""],[""img/mask42.png""]]]","","[7,4,3]","color",195,1,7,135,125.67040618577,9.32959381423009,125.67040618577,9.32959381423009,9.32959381423009
232,900058,"558943fafdf99b5ccd435cb3",2638,"","[7,2,5]","[229,343,195]",229,332,290.646691897572,290.646691897572,318.646691897572,319,0,3,0,144.552000000025,142.891999999993,150,"[[[""img/mask40.png""],[""img/mask9.png""],[""img/mask21.png""]]]","","[7,2,5]","color",332,1,7,135,-69.3533081024277,155.646691897572,290.646691897572,204.353308102428,155.646691897572
234,906899,"558943fafdf99b5ccd435cb3",1946,"","[4,3,5,2,1]","[32,298,128,66,99]",32,197,274.770687160436,274.770687160436,77.770687160436,78,0,5,0,144.584000000032,9.92399999999907,16,"[[[""img/mask8.png""],[""img/mask69.png""],[""img/mask95.png""],[""img/mask71.png""],[""img/mask57.png""]]]","","[4,3,5,2,1]","color",197,1,4,270,274.770687160436,4.77068716043595,274.770687160436,4.77068716043595,4.77068716043595
236,914082,"558943fafdf99b5ccd435cb3",2913,"","[2,6,5]","[343,185,67]",343,271,65.6033420292885,65.6033420292885,154.603342029288,151,0,3,0,144.001999999979,150.341999999946,150,"[[[""img/mask51.png""],[""img/mask89.png""],[""img/mask94.png""]]]","","[2,6,5]","color",271,1,2,0,65.6033420292885,65.6033420292885,65.6033420292885,65.6033420292885,65.6033420292885
238,919354,"558943fafdf99b5ccd435cb3",1968,"","[3,6,0]","[350,281,189]",350,303,293.532736283039,293.532736283039,350.532736283039,351,0,3,0,144.420000000042,145.760000000009,150,"[[[""img/mask89.png""],[""img/mask81.png""],[""img/mask17.png""]]]","","[3,6,0]","color",303,1,3,315,293.532736283039,21.4672637169605,293.532736283039,21.4672637169605,21.4672637169605
240,925786,"558943fafdf99b5ccd435cb3",2983,"","[4,7,5,6,3]","[169,120,249,202,82]",169,74,278.354684789551,278.354684789551,204.354684789551,204,0,5,0,143.869999999995,12.2099999999627,16,"[[[""img/mask99.png""],[""img/mask79.png""],[""img/mask35.png""],[""img/mask85.png""],[""img/mask85.png""]]]","","[4,7,5,6,3]","color",74,1,4,270,278.354684789551,8.35468478955113,278.354684789551,8.35468478955113,8.35468478955113
242,932834,"558943fafdf99b5ccd435cb3",2349,"","[7,5,0]","[52,164,121]",52,290,145.997649372944,145.997649372944,215.997649372944,213,0,3,0,144.89599999995,80.2360000000335,83,"[[[""img/mask25.png""],[""img/mask66.png""],[""img/mask9.png""]]]","","[7,5,0]","color",290,1,7,135,145.997649372944,10.9976493729436,145.997649372944,10.9976493729436,10.9976493729436
244,937986,"558943fafdf99b5ccd435cb3",2401,"","[7]","[26]",26,198,236.727833312113,236.727833312113,38.7278333121128,38,0,1,0,144.692000000039,21.0320000000065,16,"[[[""img/mask92.png""]]]","","[7]","color",198,1,7,135,-123.272166687887,101.727833312113,236.727833312113,258.272166687887,101.727833312113
246,943394,"558943fafdf99b5ccd435cb3",2493,"","[6,4,2,5,1]","[260,12,330,49,84]",260,14,145.434285208398,145.434285208398,131.434285208398,129,0,5,0,144.14599999995,77.4860000000335,83,"[[[""img/mask72.png""],[""img/mask85.png""],[""img/mask39.png""],[""img/mask88.png""],[""img/mask68.png""]]]","","[6,4,2,5,1]","color",14,1,6,180,145.434285208398,34.5657147916017,145.434285208398,34.5657147916017,34.5657147916017
248,951146,"558943fafdf99b5ccd435cb3",4462,"","[2]","[103]",103,321,73.0636957667164,73.0636957667164,112.063695766716,109,0,1,0,144.248000000021,76.5879999999888,83,"[[[""img/mask46.png""]]]","","[2]","color",321,1,2,0,73.0636957667164,73.0636957667164,73.0636957667164,73.0636957667164,73.0636957667164
250,959211,"558943fafdf99b5ccd435cb3",4593,"","[7,1,5,0,2]","[72,234,328,103,21]",72,79,96.2083218741976,96.2083218741976,17.2083218741976,14,0,5,0,144.263999999966,23.6040000000503,16,"[[[""img/mask50.png""],[""img/mask74.png""],[""img/mask80.png""],[""img/mask36.png""],[""img/mask2.png""]]]","","[7,1,5,0,2]","color",79,1,7,135,96.2083218741976,38.7916781258024,96.2083218741976,38.7916781258024,38.7916781258024
256,977555,"558943fafdf99b5ccd435cb3",2855,"","[2,1,6,5,3]","[287,23,229,194,118]",287,180,54.7786678632964,54.7786678632964,234.778667863296,232,0,5,0,144.793999999994,156.133999999962,150,"[[[""img/mask13.png""],[""img/mask46.png""],[""img/mask29.png""],[""img/mask84.png""],[""img/mask41.png""]]]","","[2,1,6,5,3]","color",180,1,2,0,54.7786678632964,54.7786678632964,54.7786678632964,54.7786678632964,54.7786678632964
258,1002466,"558943fafdf99b5ccd435cb3",1800,"","[6,4,0]","[65,335,303]",65,237,71.4554714171894,71.4554714171894,194.455471417189,191,0,3,0,144.42200000002,22.7619999999879,16,"[[[""img/mask31.png""],[""img/mask74.png""],[""img/mask86.png""]]]","","[6,4,0]","color",237,1,6,180,71.4554714171894,108.544528582811,71.4554714171894,108.544528582811,108.544528582811
262,1014658,"558943fafdf99b5ccd435cb3",1860,"","[3,6,0]","[152,334,35]",152,32,285.187313406672,285.187313406672,253.187313406672,253,0,3,0,144.270000000019,23.609999999986,16,"[[[""img/mask39.png""],[""img/mask96.png""],[""img/mask87.png""]]]","","[3,6,0]","color",32,1,3,315,285.187313406672,29.8126865933278,285.187313406672,29.8126865933278,29.8126865933278
268,1031394,"558943fafdf99b5ccd435cb3",1645,"","[4]","[253]",253,176,186.937377242464,186.937377242464,10.9373772424638,9,0,1,0,143.591999999946,22.9320000000298,16,"[[[""img/mask94.png""]]]","","[4]","color",176,1,4,270,186.937377242464,83.0626227575362,186.937377242464,83.0626227575362,83.0626227575362
270,1036338,"558943fafdf99b5ccd435cb3",2340,"","[7]","[141]",141,95,359.683747375812,359.683747375812,264.683747375812,263,0,1,0,144.42200000002,154.761999999988,150,"[[[""img/mask2.png""]]]","","[7]","color",95,1,7,135,-0.316252624188337,135.316252624188,359.683747375812,135.316252624188,224.683747375812
272,1041603,"558943fafdf99b5ccd435cb3",2222,"","[7]","[38]",38,141,4.79525706946067,4.79525706946067,223.795257069461,222,0,1,0,144.540000000037,142.880000000005,150,"[[[""img/mask89.png""]]]","","[7]","color",141,1,7,135,4.79525706946067,130.204742930539,4.79525706946067,130.204742930539,130.204742930539
274,1048050,"558943fafdf99b5ccd435cb3",2502,"","[5,6,2,0,3]","[341,32,75,249,207]",341,345,246.145119065562,246.145119065562,261.145119065562,263,0,5,0,144.959999999963,76.3000000000466,83,"[[[""img/mask39.png""],[""img/mask88.png""],[""img/mask71.png""],[""img/mask7.png""],[""img/mask24.png""]]]","","[5,6,2,0,3]","color",345,1,5,225,246.145119065562,21.1451190655623,246.145119065562,21.1451190655623,21.1451190655623
276,1053314,"558943fafdf99b5ccd435cb3",2199,"","[6]","[163]",163,66,291.085271144414,291.085271144414,225.085271144414,225,0,1,0,144.404000000097,15.7439999999478,16,"[[[""img/mask54.png""]]]","","[6]","color",66,1,6,180,291.085271144414,111.085271144414,291.085271144414,111.085271144414,111.085271144414
278,1060346,"558943fafdf99b5ccd435cb3",2933,"","[4,1,3]","[195,16,39]",195,190,252.802587432263,252.802587432263,62.8025874322627,63,0,3,0,143.152000000002,21.4920000000857,16,"[[[""img/mask34.png""],[""img/mask43.png""],[""img/mask6.png""]]]","","[4,1,3]","color",190,1,4,270,252.802587432263,17.1974125677373,252.802587432263,17.1974125677373,17.1974125677373
280,1067266,"558943fafdf99b5ccd435cb3",2736,"","[3,0,5]","[335,217,144]",335,283,351.68950358195,351.68950358195,68.6895035819495,67,0,3,0,144.533999999985,76.8740000000689,83,"[[[""img/mask24.png""],[""img/mask54.png""],[""img/mask78.png""]]]","","[3,0,5]","color",283,1,3,315,351.68950358195,36.6895035819495,351.68950358195,36.6895035819495,36.6895035819495
282,1072394,"558943fafdf99b5ccd435cb3",2115,"","[5,2,4,7,3]","[29,164,311,251,107]",29,51,191.047069066504,191.047069066504,140.047069066504,138,0,5,0,144.304000000004,76.6440000000875,83,"[[[""img/mask54.png""],[""img/mask39.png""],[""img/mask58.png""],[""img/mask12.png""],[""img/mask52.png""]]]","","[5,2,4,7,3]","color",51,1,5,225,191.047069066504,33.952930933496,191.047069066504,33.952930933496,33.952930933496
286,1083618,"558943fafdf99b5ccd435cb3",1889,"","[5]","[285]",285,181,13.2630625901337,13.2630625901337,192.263062590134,190,0,1,0,142.845999999903,77.185999999987,83,"[[[""img/mask51.png""]]]","","[5]","color",181,1,5,225,373.263062590134,148.263062590134,13.2630625901337,148.263062590134,211.736937409866
290,1094611,"558943fafdf99b5ccd435cb3",1998,"","[1,4,6,3,5]","[176,21,64,121,359]",176,104,56.8238621173182,56.8238621173182,312.823862117318,309,0,5,0,144.743999999948,77.0840000000317,83,"[[[""img/mask22.png""],[""img/mask80.png""],[""img/mask52.png""],[""img/mask75.png""],[""img/mask72.png""]]]","","[1,4,6,3,5]","color",104,1,1,45,56.8238621173182,11.8238621173182,56.8238621173182,11.8238621173182,11.8238621173182
292,1099579,"558943fafdf99b5ccd435cb3",2167,"","[2]","[335]",335,113,150.459291307403,150.459291307403,37.4592913074027,36,0,1,0,144.551999999909,85.8919999999925,83,"[[[""img/mask93.png""]]]","","[2]","color",113,1,2,0,150.459291307403,150.459291307403,150.459291307403,150.459291307403,150.459291307403
294,1105723,"558943fafdf99b5ccd435cb3",3040,"","[0,4,7,2,1]","[322,264,93,184,230]",322,282,251.464972150419,251.464972150419,329.464972150419,329,0,5,0,144.007999999914,23.3479999999981,16,"[[[""img/mask60.png""],[""img/mask9.png""],[""img/mask83.png""],[""img/mask13.png""],[""img/mask35.png""]]]","","[0,4,7,2,1]","color",282,1,0,90,-108.535027849581,161.464972150419,251.464972150419,198.535027849581,161.464972150419
296,1111251,"558943fafdf99b5ccd435cb3",2173,"","[3,4,1,7,6]","[108,300,208,168,55]",108,98,257.904172984177,257.904172984177,159.904172984177,160,0,5,0,144.752000000095,84.091999999946,83,"[[[""img/mask27.png""],[""img/mask52.png""],[""img/mask45.png""],[""img/mask14.png""],[""img/mask66.png""]]]","","[3,4,1,7,6]","color",98,1,3,315,257.904172984177,57.0958270158234,257.904172984177,57.0958270158234,57.0958270158234
298,1121803,"558943fafdf99b5ccd435cb3",2209,"","[6,2,5,4,1]","[32,152,311,248,129]",32,350,192.297964515002,192.297964515002,202.297964515002,201,0,5,0,143.997999999905,144.337999999989,150,"[[[""img/mask32.png""],[""img/mask56.png""],[""img/mask98.png""],[""img/mask57.png""],[""img/mask46.png""]]]","","[6,2,5,4,1]","color",350,1,6,180,192.297964515002,12.2979645150016,192.297964515002,12.2979645150016,12.2979645150016
300,1128219,"558943fafdf99b5ccd435cb3",2974,"","[6,5,3,7,4]","[21,157,243,182,350]",21,170,258.072827533834,258.072827533834,88.0728275338343,88,0,5,0,144.772000000114,24.1119999999646,16,"[[[""img/mask84.png""],[""img/mask77.png""],[""img/mask12.png""],[""img/mask6.png""],[""img/mask39.png""]]]","","[6,5,3,7,4]","color",170,1,6,180,258.072827533834,78.0728275338343,258.072827533834,78.0728275338343,78.0728275338343
304,1140515,"558943fafdf99b5ccd435cb3",2337,"","[3,4,1,5,0]","[321,112,216,134,276]",321,289,249.232656314176,249.232656314176,320.232656314176,321,0,5,0,144.587999999989,152.928000000073,150,"[[[""img/mask6.png""],[""img/mask49.png""],[""img/mask30.png""],[""img/mask66.png""],[""img/mask97.png""]]]","","[3,4,1,5,0]","color",289,1,3,315,249.232656314176,65.7673436858237,249.232656314176,65.7673436858237,65.7673436858237
306,1146371,"558943fafdf99b5ccd435cb3",2077,"","[7,5,4,6,0]","[134,162,320,255,0]",134,199,99.9700776319454,99.9700776319454,260.970077631945,258,0,5,0,143.010000000009,89.3500000000931,83,"[[[""img/mask96.png""],[""img/mask20.png""],[""img/mask86.png""],[""img/mask74.png""],[""img/mask92.png""]]]","","[7,5,4,6,0]","color",199,1,7,135,99.9700776319454,35.0299223680546,99.9700776319454,35.0299223680546,35.0299223680546
308,1152571,"558943fafdf99b5ccd435cb3",2961,"","[4]","[243]",243,227,54.6762774064558,54.6762774064558,187.676277406456,185,0,1,0,144.46399999992,157.804000000004,150,"[[[""img/mask52.png""]]]","","[4]","color",227,1,4,270,414.676277406456,144.676277406456,54.6762774064558,144.676277406456,215.323722593544
310,1158747,"558943fafdf99b5ccd435cb3",1954,"","[0]","[204]",204,46,235.432767715352,235.432767715352,189.432767715352,189,0,1,0,144.510000000009,150.850000000093,150,"[[[""img/mask32.png""]]]","","[0]","color",46,1,0,90,-124.567232284648,145.432767715352,235.432767715352,214.567232284648,145.432767715352
312,1163539,"558943fafdf99b5ccd435cb3",1562,"","[0]","[157]",157,142,349.078248743714,349.078248743714,207.078248743714,206,0,1,0,144.63599999994,154.976000000024,150,"[[[""img/mask65.png""]]]","","[0]","color",142,1,0,90,-10.921751256286,100.921751256286,349.078248743714,100.921751256286,259.078248743714
314,1169243,"558943fafdf99b5ccd435cb3",2400,"","[1,5,6,4,2]","[146,325,260,285,85]",146,120,15.8592419765824,15.8592419765824,255.859241976582,254,0,5,0,143.108000000007,86.4480000000913,83,"[[[""img/mask40.png""],[""img/mask67.png""],[""img/mask97.png""],[""img/mask95.png""],[""img/mask35.png""]]]","","[1,5,6,4,2]","color",120,1,1,45,15.8592419765824,29.1407580234176,15.8592419765824,29.1407580234176,29.1407580234176
316,1175540,"558943fafdf99b5ccd435cb3",2996,"","[7,1,6]","[359,153,95]",359,54,115.10493499586,115.10493499586,61.1049349958598,58,0,3,0,143.879999999888,8.21999999997206,16,"[[[""img/mask72.png""],[""img/mask5.png""],[""img/mask100.png""]]]","","[7,1,6]","color",54,1,7,135,115.10493499586,19.8950650041402,115.10493499586,19.8950650041402,19.8950650041402
318,1182355,"558943fafdf99b5ccd435cb3",3130,"","[2,4,3]","[208,280,345]",208,194,23.667313089561,23.667313089561,189.667313089561,187,0,3,0,144.945999999996,83.2860000000801,83,"[[[""img/mask57.png""],[""img/mask50.png""],[""img/mask13.png""]]]","","[2,4,3]","color",194,1,2,0,23.667313089561,23.667313089561,23.667313089561,23.667313089561,23.667313089561
320,1188498,"558943fafdf99b5ccd435cb3",2023,"","[7,5,2,4,6]","[302,236,72,133,327]",302,156,109.30373407684,109.30373407684,313.30373407684,310,0,5,0,144.655999999959,82.9960000000428,83,"[[[""img/mask43.png""],[""img/mask73.png""],[""img/mask47.png""],[""img/mask52.png""],[""img/mask69.png""]]]","","[7,5,2,4,6]","color",156,1,7,135,109.30373407684,25.6962659231601,109.30373407684,25.6962659231601,25.6962659231601
322,1193979,"558943fafdf99b5ccd435cb3",2371,"","[7,2,0]","[330,67,272]",330,124,233.450392699793,233.450392699793,109.450392699793,109,0,3,0,144.783999999985,90.1240000000689,83,"[[[""img/mask95.png""],[""img/mask3.png""],[""img/mask2.png""]]]","","[7,2,0]","color",124,1,7,135,-126.549607300207,98.4503926997932,233.450392699793,261.549607300207,98.4503926997932
324,1200739,"558943fafdf99b5ccd435cb3",4015,"","[0,1,6]","[204,95,4]",204,323,11.9472121016384,11.9472121016384,48.9472121016383,47,0,3,0,144.246000000043,89.5859999998938,83,"[[[""img/mask38.png""],[""img/mask64.png""],[""img/mask36.png""]]]","","[0,1,6]","color",323,1,0,90,11.9472121016384,78.0527878983616,11.9472121016384,78.0527878983616,78.0527878983616
328,1211547,"558943fafdf99b5ccd435cb3",2489,"","[1]","[245]",245,122,358.572021646728,358.572021646728,236.572021646728,236,0,1,0,143.085999999894,147.425999999978,150,"[[[""img/mask66.png""]]]","","[1]","color",122,1,1,45,-1.42797835327241,46.4279783532724,358.572021646728,46.4279783532724,313.572021646728
330,1216636,"558943fafdf99b5ccd435cb3",2078,"","[0]","[304]",304,13,19.1033483854219,19.1033483854219,6.10334838542191,4,0,1,0,143.865999999922,79.2060000000056,83,"[[[""img/mask33.png""]]]","","[0]","color",13,1,0,90,19.1033483854219,70.8966516145781,19.1033483854219,70.8966516145781,70.8966516145781
332,1222387,"558943fafdf99b5ccd435cb3",2797,"","[6,7,2,5,0]","[32,104,150,268,335]",32,7,276.714032120992,276.714032120992,269.714032120992,270,0,5,0,143.997999999905,85.3379999999888,83,"[[[""img/mask46.png""],[""img/mask79.png""],[""img/mask66.png""],[""img/mask33.png""],[""img/mask74.png""]]]","","[6,7,2,5,0]","color",7,1,6,180,276.714032120992,96.7140321209922,276.714032120992,96.7140321209922,96.7140321209922
334,1229971,"558943fafdf99b5ccd435cb3",4498,"","[1,3,6]","[218,138,243]",218,195,85.1192716602956,85.1192716602956,250.119271660296,247,0,3,0,144.095999999903,144.435999999987,150,"[[[""img/mask81.png""],[""img/mask5.png""],[""img/mask74.png""]]]","","[1,3,6]","color",195,1,1,45,85.1192716602956,40.1192716602956,85.1192716602956,40.1192716602956,40.1192716602956
336,1244715,"558943fafdf99b5ccd435cb3",11109,"","[6]","[256]",256,149,29.5748365110096,29.5748365110096,240.57483651101,239,0,1,0,143.10400000005,84.4439999999013,83,"[[[""img/mask48.png""]]]","","[6]","color",149,1,6,180,29.5748365110096,150.42516348899,29.5748365110096,150.42516348899,150.42516348899
338,1254276,"558943fafdf99b5ccd435cb3",3002,"","[5,0,4]","[207,171,264]",207,333,170.57702608462,170.57702608462,197.57702608462,195,0,3,0,143.064000000013,154.404000000097,150,"[[[""img/mask59.png""],[""img/mask25.png""],[""img/mask70.png""]]]","","[5,0,4]","color",333,1,5,225,530.57702608462,54.4229739153799,170.57702608462,305.57702608462,54.4229739153799
342,1268505,"558943fafdf99b5ccd435cb3",3751,"","[0,2,6]","[307,357,41]",307,169,9.19528336635294,9.19528336635294,200.195283366353,199,0,3,0,143.858000000007,23.1980000000913,16,"[[[""img/mask37.png""],[""img/mask32.png""],[""img/mask54.png""]]]","","[0,2,6]","color",169,1,0,90,9.19528336635294,80.8047166336471,9.19528336635294,80.8047166336471,80.8047166336471
344,1275099,"558943fafdf99b5ccd435cb3",2593,"","[5,1,0]","[294,216,272]",294,359,324.050551662578,324.050551662578,325.050551662578,325,0,3,0,144.547999999952,152.888000000035,150,"[[[""img/mask73.png""],[""img/mask37.png""],[""img/mask70.png""]]]","","[5,1,0]","color",359,1,5,225,324.050551662578,99.0505516625777,324.050551662578,99.0505516625777,99.0505516625777
346,1280146,"558943fafdf99b5ccd435cb3",2259,"","[6,1,5,2,3]","[349,84,111,203,181]",349,174,133.057709982032,133.057709982032,319.057709982032,316,0,5,0,144.665999999968,22.0060000000522,16,"[[[""img/mask25.png""],[""img/mask57.png""],[""img/mask9.png""],[""img/mask76.png""],[""img/mask18.png""]]]","","[6,1,5,2,3]","color",174,1,6,180,133.057709982032,46.9422900179679,133.057709982032,46.9422900179679,46.9422900179679
348,1286489,"558943fafdf99b5ccd435cb3",3302,"","[6,7,0,1,2]","[122,101,2,25,209]",122,271,200.4794141226,200.4794141226,289.4794141226,288,0,5,0,143.453999999911,7.79399999999441,16,"[[[""img/mask79.png""],[""img/mask38.png""],[""img/mask35.png""],[""img/mask28.png""],[""img/mask88.png""]]]","","[6,7,0,1,2]","color",271,1,6,180,200.4794141226,20.4794141225996,200.4794141226,20.4794141225996,20.4794141225996
350,1291898,"558943fafdf99b5ccd435cb3",2128,"","[7]","[143]",143,67,277.044501564866,277.044501564866,210.044501564866,210,0,1,0,144.523999999976,81.8640000000596,83,"[[[""img/mask17.png""]]]","","[7]","color",67,1,7,135,-82.955498435134,142.044501564866,277.044501564866,217.955498435134,142.044501564866
354,1305930,"558943fafdf99b5ccd435cb3",3743,"","[2,0,4]","[357,209,96]",357,238,47.6613796840387,47.6613796840387,169.661379684039,167,0,3,0,143.693999999901,147.033999999985,150,"[[[""img/mask3.png""],[""img/mask98.png""],[""img/mask83.png""]]]","","[2,0,4]","color",238,1,2,0,47.6613796840387,47.6613796840387,47.6613796840387,47.6613796840387,47.6613796840387
356,1312242,"558943fafdf99b5ccd435cb3",2673,"","[1,3,2,7,5]","[125,29,305,280,238]",125,109,6.69333680310388,6.69333680310388,257.693336803104,256,0,5,0,144.732000000076,88.0719999999274,83,"[[[""img/mask22.png""],[""img/mask44.png""],[""img/mask94.png""],[""img/mask34.png""],[""img/mask58.png""]]]","","[1,3,2,7,5]","color",109,1,1,45,6.69333680310388,38.3066631968961,6.69333680310388,38.3066631968961,38.3066631968961
358,1325234,"558943fafdf99b5ccd435cb3",9499,"","[0,1,4]","[309,3,264]",309,125,108.654150030432,108.654150030432,343.654150030432,341,0,3,0,144.152000000002,88.4920000000857,83,"[[[""img/mask34.png""],[""img/mask82.png""],[""img/mask93.png""]]]","","[0,1,4]","color",125,1,0,90,108.654150030432,18.6541500304316,108.654150030432,18.6541500304316,18.6541500304316
360,1332274,"558943fafdf99b5ccd435cb3",2223,"","[3,6,5]","[339,210,95]",339,80,301.998019991982,301.998019991982,221.998019991982,222,0,3,0,144.246000000043,155.585999999894,150,"[[[""img/mask73.png""],[""img/mask8.png""],[""img/mask4.png""]]]","","[3,6,5]","color",80,1,3,315,301.998019991982,13.0019800080178,301.998019991982,13.0019800080178,13.0019800080178
362,1340170,"558943fafdf99b5ccd435cb3",2768,"","[1]","[337]",337,72,268.219288650337,268.219288650337,196.219288650337,196,0,1,0,143.952000000048,23.2919999998994,16,"[[[""img/mask68.png""]]]","","[1]","color",72,1,1,45,-91.7807113496634,136.780711349663,268.219288650337,136.780711349663,223.219288650337
368,1357466,"558943fafdf99b5ccd435cb3",2365,"","[0,7,1,5,4]","[321,139,191,80,35]",321,70,273.763607636848,273.763607636848,203.763607636848,204,0,5,0,144.243999999948,157.584000000032,150,"[[[""img/mask81.png""],[""img/mask46.png""],[""img/mask58.png""],[""img/mask83.png""],[""img/mask55.png""]]]","","[0,7,1,5,4]","color",70,1,0,90,-86.2363923631519,176.236392363152,273.763607636848,176.236392363152,183.763607636848
370,1363754,"558943fafdf99b5ccd435cb3",3619,"","[3,0,1]","[133,263,40]",133,227,322.890315164839,322.890315164839,95.8903151648387,95,0,3,0,144.375999999931,156.716000000015,150,"[[[""img/mask47.png""],[""img/mask11.png""],[""img/mask7.png""]]]","","[3,0,1]","color",227,1,3,315,322.890315164839,7.89031516483868,322.890315164839,7.89031516483868,7.89031516483868
372,1370746,"558943fafdf99b5ccd435cb3",4012,"","[7]","[60]",60,53,327.449989153516,327.449989153516,274.449989153516,274,0,1,0,144.111999999965,10.4520000000484,16,"[[[""img/mask58.png""]]]","","[7]","color",53,1,7,135,-32.5500108464843,167.550010846484,327.449989153516,167.550010846484,192.449989153516
374,1375850,"558943fafdf99b5ccd435cb3",2234,"","[5,7,3]","[17,181,206]",17,193,246.786786148646,246.786786148646,53.7867861486463,54,0,3,0,143.169999999925,19.5100000000093,16,"[[[""img/mask23.png""],[""img/mask74.png""],[""img/mask92.png""]]]","","[5,7,3]","color",193,1,5,225,246.786786148646,21.7867861486463,246.786786148646,21.7867861486463,21.7867861486463
376,1380659,"558943fafdf99b5ccd435cb3",2110,"","[5,7,6]","[87,123,181]",87,255,254.817458249767,254.817458249767,359.817458249767,0,0,3,0,143.306000000099,12.6459999999497,16,"[[[""img/mask79.png""],[""img/mask60.png""],[""img/mask81.png""]]]","","[5,7,6]","color",255,1,5,225,254.817458249767,29.8174582497673,254.817458249767,29.8174582497673,29.8174582497673
378,1390434,"558943fafdf99b5ccd435cb3",2602,"","[0,7,2,3,4]","[118,202,165,53,325]",118,114,53.0683498827145,53.0683498827145,299.068349882715,296,0,5,0,143.267999999924,155.608000000007,150,"[[[""img/mask40.png""],[""img/mask42.png""],[""img/mask93.png""],[""img/mask81.png""],[""img/mask57.png""]]]","","[0,7,2,3,4]","color",114,1,0,90,53.0683498827145,36.9316501172855,53.0683498827145,36.9316501172855,36.9316501172855
380,1394938,"558943fafdf99b5ccd435cb3",1888,"","[7,4,3,6,1]","[26,236,54,142,103]",26,224,166.897023788118,166.897023788118,302.897023788118,301,0,5,0,144.726000000024,157.066000000108,150,"[[[""img/mask73.png""],[""img/mask2.png""],[""img/mask14.png""],[""img/mask7.png""],[""img/mask71.png""]]]","","[7,4,3,6,1]","color",224,1,7,135,166.897023788118,31.8970237881179,166.897023788118,31.8970237881179,31.8970237881179
382,1400762,"558943fafdf99b5ccd435cb3",2497,"","[3]","[148]",148,222,30.178454492211,30.178454492211,168.178454492211,166,0,1,0,144.183999999892,157.523999999976,150,"[[[""img/mask79.png""]]]","","[3]","color",222,1,3,315,390.178454492211,75.178454492211,30.178454492211,75.178454492211,284.821545507789
384,1408298,"558943fafdf99b5ccd435cb3",3982,"","[6,1,3,7,5]","[331,146,94,25,310]",331,204,3.08566840191679,3.08566840191679,159.085668401917,158,0,5,0,143.942000000039,16.2819999998901,16,"[[[""img/mask9.png""],[""img/mask77.png""],[""img/mask7.png""],[""img/mask41.png""],[""img/mask22.png""]]]","","[6,1,3,7,5]","color",204,1,6,180,3.08566840191679,176.914331598083,3.08566840191679,176.914331598083,176.914331598083
386,1414098,"558943fafdf99b5ccd435cb3",2867,"","[4]","[156]",156,210,31.9005083525216,31.9005083525216,181.900508352522,180,0,1,0,143.331999999937,23.6720000000205,16,"[[[""img/mask38.png""]]]","","[4]","color",210,1,4,270,391.900508352522,121.900508352522,31.9005083525216,121.900508352522,238.099491647478
388,1421610,"558943fafdf99b5ccd435cb3",4079,"","[1]","[304]",304,15,317.690632687792,317.690632687792,302.690632687792,304,0,1,0,143.080000000075,157.419999999925,150,"[[[""img/mask82.png""]]]","","[1]","color",15,1,1,45,-42.3093673122079,87.3093673122079,317.690632687792,87.3093673122079,272.690632687792
390,1427570,"558943fafdf99b5ccd435cb3",2571,"","[5,1,7]","[35,329,255]",35,26,351.503069680928,351.503069680928,325.503069680928,324,0,3,0,143.448000000091,152.787999999942,150,"[[[""img/mask67.png""],[""img/mask9.png""],[""img/mask87.png""]]]","","[5,1,7]","color",26,1,5,225,351.503069680928,126.503069680928,351.503069680928,126.503069680928,126.503069680928
392,1432778,"558943fafdf99b5ccd435cb3",2047,"","[6,5,3]","[326,274,10]",326,88,148.537221226455,148.537221226455,60.5372212264547,57,0,3,0,144.551999999909,142.891999999993,150,"[[[""img/mask66.png""],[""img/mask35.png""],[""img/mask11.png""]]]","","[6,5,3]","color",88,1,6,180,148.537221226455,31.4627787735453,148.537221226455,31.4627787735453,31.4627787735453
394,1439971,"558943fafdf99b5ccd435cb3",2672,"","[7,3,2,4,0]","[153,218,194,318,67]",153,309,117.460044709872,117.460044709872,168.460044709872,166,0,5,0,144.956000000006,157.296000000089,150,"[[[""img/mask41.png""],[""img/mask22.png""],[""img/mask42.png""],[""img/mask3.png""],[""img/mask51.png""]]]","","[7,3,2,4,0]","color",309,1,7,135,117.460044709872,17.5399552901282,117.460044709872,17.5399552901282,17.5399552901282
396,1445491,"558943fafdf99b5ccd435cb3",2360,"","[6]","[173]",173,124,329.59819421122,329.59819421122,205.59819421122,205,0,1,0,144.056000000099,90.3959999999497,83,"[[[""img/mask95.png""]]]","","[6]","color",124,1,6,180,329.59819421122,149.59819421122,329.59819421122,149.59819421122,149.59819421122
398,1450699,"558943fafdf99b5ccd435cb3",2035,"","[3,7,1,0,4]","[332,126,284,58,17]",332,125,339.397450839281,339.397450839281,214.397450839281,214,0,5,0,143.168000000063,143.507999999914,150,"[[[""img/mask77.png""],[""img/mask39.png""],[""img/mask32.png""],[""img/mask93.png""],[""img/mask56.png""]]]","","[3,7,1,0,4]","color",125,1,3,315,339.397450839281,24.3974508392812,339.397450839281,24.3974508392812,24.3974508392812
400,1456683,"558943fafdf99b5ccd435cb3",2386,"","[2,0,1]","[250,16,344]",250,17,249.980778383414,249.980778383414,232.980778383414,233,0,3,0,144.276000000071,14.6159999999218,16,"[[[""img/mask76.png""],[""img/mask31.png""],[""img/mask44.png""]]]","","[2,0,1]","color",17,1,2,0,-110.019221616586,110.019221616586,249.980778383414,110.019221616586,249.980778383414
402,1463067,"558943fafdf99b5ccd435cb3",3019,"","[7,6,2]","[298,250,58]",298,114,139.378330897203,139.378330897203,25.3783308972034,22,0,3,0,143.046000000089,146.38599999994,150,"[[[""img/mask70.png""],[""img/mask84.png""],[""img/mask30.png""]]]","","[7,6,2]","color",114,1,7,135,139.378330897203,4.37833089720337,139.378330897203,4.37833089720337,4.37833089720337
404,1468691,"558943fafdf99b5ccd435cb3",2959,"","[5,7,4,6,1]","[53,340,285,178,134]",53,145,239.35921744142,239.35921744142,94.3592174414199,94,0,5,0,143.152000000002,9.49200000008568,16,"[[[""img/mask92.png""],[""img/mask92.png""],[""img/mask24.png""],[""img/mask62.png""],[""img/mask97.png""]]]","","[5,7,4,6,1]","color",145,1,5,225,239.35921744142,14.3592174414199,239.35921744142,14.3592174414199,14.3592174414199
406,1475331,"558943fafdf99b5ccd435cb3",3050,"","[1,5,4,6,2]","[23,262,196,157,79]",23,189,326.184230743891,326.184230743891,137.184230743891,137,0,5,0,144.889999999898,11.2299999999814,16,"[[[""img/mask78.png""],[""img/mask47.png""],[""img/mask58.png""],[""img/mask84.png""],[""img/mask95.png""]]]","","[1,5,4,6,2]","color",189,1,1,45,-33.8157692561093,78.8157692561093,326.184230743891,78.8157692561093,281.184230743891
408,1479683,"558943fafdf99b5ccd435cb3",1770,"","[2]","[333]",333,61,88.8478053164549,88.8478053164549,27.8478053164549,24,0,1,0,143.997999999905,77.3379999999888,83,"[[[""img/mask69.png""]]]","","[2]","color",61,1,2,0,88.8478053164549,88.8478053164549,88.8478053164549,88.8478053164549,88.8478053164549
410,1486219,"558943fafdf99b5ccd435cb3",2623,"","[0,6,1,5,3]","[232,132,89,324,184]",232,235,160.327280677257,160.327280677257,285.327280677257,283,0,5,0,143.10400000005,154.443999999901,150,"[[[""img/mask47.png""],[""img/mask27.png""],[""img/mask59.png""],[""img/mask72.png""],[""img/mask25.png""]]]","","[0,6,1,5,3]","color",235,1,0,90,160.327280677257,70.3272806772571,160.327280677257,70.3272806772571,70.3272806772571
414,1497835,"558943fafdf99b5ccd435cb3",2655,"","[4,6,2,0,7]","[148,240,323,262,24]",148,149,235.870113469233,235.870113469233,86.870113469233,87,0,5,0,143.973999999929,79.314000000013,83,"[[[""img/mask80.png""],[""img/mask19.png""],[""img/mask8.png""],[""img/mask28.png""],[""img/mask35.png""]]]","","[4,6,2,0,7]","color",149,1,4,270,235.870113469233,34.129886530767,235.870113469233,34.129886530767,34.129886530767
418,1513370,"558943fafdf99b5ccd435cb3",1659,"","[2,1,5,6,7]","[76,9,242,322,267]",76,40,330.389959063762,330.389959063762,290.389959063762,290,0,5,0,144.64599999995,89.9860000000335,83,"[[[""img/mask47.png""],[""img/mask42.png""],[""img/mask9.png""],[""img/mask14.png""],[""img/mask6.png""]]]","","[2,1,5,6,7]","color",40,1,2,0,-29.6100409362382,29.6100409362382,330.389959063762,29.6100409362382,330.389959063762
424,1534482,"558943fafdf99b5ccd435cb3",3689,"","[7,6,3]","[315,0,86]",315,216,87.6640663206661,87.6640663206661,231.664066320666,229,0,3,0,144.216000000015,79.5560000000987,83,"[[[""img/mask17.png""],[""img/mask1.png""],[""img/mask17.png""]]]","","[7,6,3]","color",216,1,7,135,87.6640663206661,47.3359336793339,87.6640663206661,47.3359336793339,47.3359336793339
428,1546186,"558943fafdf99b5ccd435cb3",2560,"","[2,6,7,3,1]","[265,8,111,302,198]",265,357,314.12142416346,314.12142416346,317.12142416346,317,0,5,0,144.03600000008,150.375999999931,150,"[[[""img/mask50.png""],[""img/mask18.png""],[""img/mask63.png""],[""img/mask64.png""],[""img/mask69.png""]]]","","[2,6,7,3,1]","color",357,1,2,0,-45.8785758365403,45.8785758365403,314.12142416346,45.8785758365403,314.12142416346
432,1556450,"558943fafdf99b5ccd435cb3",2273,"","[4,6,5,2,0]","[171,328,88,353,199]",171,219,274.285621412752,274.285621412752,55.2856214127519,55,0,5,0,144.61400000006,19.9539999999106,16,"[[[""img/mask9.png""],[""img/mask64.png""],[""img/mask34.png""],[""img/mask59.png""],[""img/mask14.png""]]]","","[4,6,5,2,0]","color",219,1,4,270,274.285621412752,4.28562141275188,274.285621412752,4.28562141275188,4.28562141275188
436,1567163,"558943fafdf99b5ccd435cb3",2237,"","[7]","[174]",174,175,205.492137179899,205.492137179899,30.4921371798986,30,0,1,0,144.183999999892,84.5239999999758,83,"[[[""img/mask13.png""]]]","","[7]","color",175,1,7,135,-154.507862820101,70.4921371798986,205.492137179899,289.507862820101,70.4921371798986
440,1579763,"558943fafdf99b5ccd435cb3",3270,"","[5,3,4]","[276,314,358]",276,340,259.561524310163,259.561524310163,279.561524310163,280,0,3,0,144.388000000035,80.7279999998864,83,"[[[""img/mask31.png""],[""img/mask47.png""],[""img/mask99.png""]]]","","[5,3,4]","color",340,1,5,225,259.561524310163,34.5615243101635,259.561524310163,34.5615243101635,34.5615243101635
442,1584859,"558943fafdf99b5ccd435cb3",2417,"","[0]","[46]",46,47,53.9304056029246,53.9304056029246,6.93040560292462,4,0,1,0,144.149999999907,78.4899999999907,83,"[[[""img/mask15.png""]]]","","[0]","color",47,1,0,90,53.9304056029246,36.0695943970754,53.9304056029246,36.0695943970754,36.0695943970754
446,1598043,"558943fafdf99b5ccd435cb3",2517,"","[4,6,1]","[22,168,80]",22,319,295.60955125031,295.60955125031,336.60955125031,337,0,3,0,144.959999999963,79.3000000000466,83,"[[[""img/mask1.png""],[""img/mask68.png""],[""img/mask19.png""]]]","","[4,6,1]","color",319,1,4,270,295.60955125031,25.6095512503102,295.60955125031,25.6095512503102,25.6095512503102
448,1605163,"558943fafdf99b5ccd435cb3",4205,"","[2,4,1,6,3]","[39,253,219,354,194]",39,312,68.5471741712419,68.5471741712419,116.547174171242,114,0,5,0,144.075999999885,82.4159999999683,83,"[[[""img/mask54.png""],[""img/mask77.png""],[""img/mask33.png""],[""img/mask58.png""],[""img/mask85.png""]]]","","[2,4,1,6,3]","color",312,1,2,0,68.5471741712419,68.5471741712419,68.5471741712419,68.5471741712419,68.5471741712419
450,1610915,"558943fafdf99b5ccd435cb3",2207,"","[1,4,7]","[291,157,114]",291,282,33.3001116140226,33.3001116140226,111.300111614023,109,0,3,0,143.766000000061,88.1059999999125,83,"[[[""img/mask65.png""],[""img/mask83.png""],[""img/mask76.png""]]]","","[1,4,7]","color",282,1,1,45,33.3001116140226,11.6998883859774,33.3001116140226,11.6998883859774,11.6998883859774
452,1616139,"558943fafdf99b5ccd435cb3",2248,"","[4]","[36]",36,253,6.09685794282896,6.09685794282896,113.096857942829,111,0,1,0,143.891999999993,19.2320000000764,16,"[[[""img/mask30.png""]]]","","[4]","color",253,1,4,270,366.096857942829,96.0968579428289,6.09685794282896,96.0968579428289,263.903142057171
454,1620467,"558943fafdf99b5ccd435cb3",1825,"","[5]","[113]",113,149,151.399775463927,151.399775463927,2.39977546392669,0,0,1,0,144.702000000048,75.0419999998994,83,"[[[""img/mask68.png""]]]","","[5]","color",149,1,5,225,511.399775463927,73.6002245360733,151.399775463927,286.399775463927,73.6002245360733
456,1626675,"558943fafdf99b5ccd435cb3",3101,"","[3]","[35]",35,81,113.337165879765,113.337165879765,32.3371658797646,29,0,1,0,144.837999999989,158.178000000073,150,"[[[""img/mask66.png""]]]","","[3]","color",81,1,3,315,473.337165879765,158.337165879765,113.337165879765,158.337165879765,201.662834120235
464,1653147,"558943fafdf99b5ccd435cb3",2592,"","[0]","[294]",294,26,42.3570973019842,42.3570973019842,16.3570973019842,13,0,1,0,144.091999999946,22.4320000000298,16,"[[[""img/mask4.png""]]]","","[0]","color",26,1,0,90,42.3570973019842,47.6429026980158,42.3570973019842,47.6429026980158,47.6429026980158
466,1658459,"558943fafdf99b5ccd435cb3",2085,"","[3]","[37]",37,36,37.2721505886347,37.2721505886347,1.27215058863472,0,0,1,0,144.526000000071,142.865999999922,150,"[[[""img/mask39.png""]]]","","[3]","color",36,1,3,315,397.272150588635,82.2721505886347,37.2721505886347,82.2721505886347,277.727849411365
468,1664036,"558943fafdf99b5ccd435cb3",2229,"","[4,5,2]","[68,290,241]",68,296,293.179821215772,293.179821215772,357.179821215772,358,0,3,0,144.641999999993,154.982000000076,150,"[[[""img/mask91.png""],[""img/mask91.png""],[""img/mask75.png""]]]","","[4,5,2]","color",296,1,4,270,293.179821215772,23.1798212157718,293.179821215772,23.1798212157718,23.1798212157718
470,1670899,"558943fafdf99b5ccd435cb3",2626,"","[1,3,6]","[325,95,262]",325,239,26.6922307545435,26.6922307545435,147.692230754543,145,0,3,0,144.050000000047,82.3899999998976,83,"[[[""img/mask3.png""],[""img/mask15.png""],[""img/mask6.png""]]]","","[1,3,6]","color",239,1,1,45,26.6922307545435,18.3077692454565,26.6922307545435,18.3077692454565,18.3077692454565
474,1682307,"558943fafdf99b5ccd435cb3",2952,"","[3,4,1,0,2]","[267,300,40,186,351]",267,7,323.346239129861,323.346239129861,316.346239129861,316,0,5,0,144.939999999944,76.2800000000279,83,"[[[""img/mask24.png""],[""img/mask15.png""],[""img/mask8.png""],[""img/mask87.png""],[""img/mask67.png""]]]","","[3,4,1,0,2]","color",7,1,3,315,323.346239129861,8.34623912986137,323.346239129861,8.34623912986137,8.34623912986137
476,1688788,"558943fafdf99b5ccd435cb3",2332,"","[5,3,6,2,1]","[137,98,326,295,9]",137,268,227.730095205983,227.730095205983,319.730095205983,319,0,5,0,144.655999999959,86.9960000000428,83,"[[[""img/mask83.png""],[""img/mask96.png""],[""img/mask98.png""],[""img/mask86.png""],[""img/mask39.png""]]]","","[5,3,6,2,1]","color",268,1,5,225,227.730095205983,2.73009520598254,227.730095205983,2.73009520598254,2.73009520598254
478,1693947,"558943fafdf99b5ccd435cb3",2576,"","[6,5,4]","[359,332,172]",359,357,143.140645004355,143.140645004355,146.140645004355,145,0,3,0,144.125999999931,144.466000000015,150,"[[[""img/mask22.png""],[""img/mask8.png""],[""img/mask59.png""]]]","","[6,5,4]","color",357,1,6,180,143.140645004355,36.859354995645,143.140645004355,36.859354995645,36.859354995645
480,1700771,"558943fafdf99b5ccd435cb3",3600,"","[1,3,0]","[309,1,28]",309,282,297.140609155143,297.140609155143,15.1406091551432,15,0,3,0,144.894000000088,85.2339999999385,83,"[[[""img/mask71.png""],[""img/mask24.png""],[""img/mask68.png""]]]","","[1,3,0]","color",282,1,1,45,-62.8593908448568,107.859390844857,297.140609155143,107.859390844857,252.140609155143
482,1708396,"558943fafdf99b5ccd435cb3",2440,"","[0,4,1,3,6]","[246,143,203,25,63]",246,136,82.8221830870852,82.8221830870852,306.822183087085,303,0,5,0,144.875999999931,146.216000000015,150,"[[[""img/mask2.png""],[""img/mask4.png""],[""img/mask55.png""],[""img/mask91.png""],[""img/mask87.png""]]]","","[0,4,1,3,6]","color",136,1,0,90,82.8221830870852,7.17781691291484,82.8221830870852,7.17781691291484,7.17781691291484
484,1713803,"558943fafdf99b5ccd435cb3",2616,"","[6,2,5,0,1]","[113,339,47,221,246]",113,254,281.99347397749,281.99347397749,27.9934739774903,29,0,5,0,144,146.340000000084,150,"[[[""img/mask91.png""],[""img/mask47.png""],[""img/mask32.png""],[""img/mask67.png""],[""img/mask75.png""]]]","","[6,2,5,0,1]","color",254,1,6,180,281.99347397749,101.99347397749,281.99347397749,101.99347397749,101.99347397749
486,1720428,"558943fafdf99b5ccd435cb3",2924,"","[1]","[350]",350,355,168.280349252819,168.280349252819,173.280349252819,172,0,1,0,144.414000000106,22.7539999999572,16,"[[[""img/mask66.png""]]]","","[1]","color",355,1,1,45,168.280349252819,123.280349252819,168.280349252819,123.280349252819,123.280349252819
488,1725515,"558943fafdf99b5ccd435cb3",2278,"","[1,2,0,5,6]","[269,36,122,186,76]",269,342,240.865402116192,240.865402116192,258.865402116192,259,0,5,0,144.517999999924,147.858000000007,150,"[[[""img/mask26.png""],[""img/mask31.png""],[""img/mask60.png""],[""img/mask93.png""],[""img/mask55.png""]]]","","[1,2,0,5,6]","color",342,1,1,45,-119.134597883808,164.134597883808,240.865402116192,164.134597883808,195.865402116192
490,1730331,"558943fafdf99b5ccd435cb3",2161,"","[6]","[154]",154,3,331.75678364123,331.75678364123,328.75678364123,328,0,1,0,144.654000000097,148.993999999948,150,"[[[""img/mask54.png""]]]","","[6]","color",3,1,6,180,331.75678364123,151.75678364123,331.75678364123,151.75678364123,151.75678364123
492,1738131,"558943fafdf99b5ccd435cb3",2495,"","[7,3,5,6,0]","[144,229,6,74,313]",144,87,139.353266002875,139.353266002875,52.3532660028746,50,0,5,0,144.022000000114,23.3619999999646,16,"[[[""img/mask63.png""],[""img/mask44.png""],[""img/mask41.png""],[""img/mask98.png""],[""img/mask52.png""]]]","","[7,3,5,6,0]","color",87,1,7,135,139.353266002875,4.35326600287462,139.353266002875,4.35326600287462,4.35326600287462
494,1743595,"558943fafdf99b5ccd435cb3",2609,"","[0,3,7,4,5]","[319,112,62,246,175]",319,219,334.576197955657,334.576197955657,115.576197955657,115,0,5,0,144.807999999961,150.148000000045,150,"[[[""img/mask73.png""],[""img/mask5.png""],[""img/mask50.png""],[""img/mask57.png""],[""img/mask88.png""]]]","","[0,3,7,4,5]","color",219,1,0,90,-25.4238020443434,115.423802044343,334.576197955657,115.423802044343,244.576197955657
498,1762851,"558943fafdf99b5ccd435cb3",2199,"","[4]","[169]",169,3,221.59302770301,221.59302770301,218.59302770301,219,0,1,0,144.688000000082,148.027999999933,150,"[[[""img/mask41.png""]]]","","[4]","color",3,1,4,270,221.59302770301,48.4069722969899,221.59302770301,48.4069722969899,48.4069722969899
22,396103,"5bbeb9e16322c500015ae44c",3193.39999999851,"","[7,3,2,0,6]","[60,195,286,3,107]",60,86,185.386280374986,185.386280374986,99.3862803749857,98,0,5,0,146.741000001493,152.352999997034,150,"[[[""img/mask28.png""],[""img/mask13.png""],[""img/mask10.png""],[""img/mask33.png""],[""img/mask83.png""]]]","","[7,3,2,0,6]","color",86,2,7,135,-174.613719625014,50.3862803749857,185.386280374986,309.613719625014,50.3862803749857
28,414346,"5bbeb9e16322c500015ae44c",2400.10000000149,"","[7]","[4]",4,30,53.111867729926,53.111867729926,23.111867729926,20,0,1,0,146.924999995506,78.543999998481,83,"[[[""img/mask7.png""]]]","","[7]","color",30,2,7,135,53.111867729926,81.888132270074,53.111867729926,81.888132270074,81.888132270074
30,419661,"5bbeb9e16322c500015ae44c",2181.40000000596,"","[2]","[240]",240,313,181.944047023553,181.944047023553,228.944047023553,227,0,1,0,147.467999997025,8.43599999853177,16,"[[[""img/mask83.png""]]]","","[2]","color",313,2,2,0,-178.055952976447,178.055952976447,181.944047023553,178.055952976447,181.944047023553
32,425665,"5bbeb9e16322c500015ae44c",2954.10000000149,"","[0,6,7,4,3]","[194,90,269,34,229]",194,60,243.105632825549,243.105632825549,183.105632825549,183,0,5,0,146.477999995521,90.8020000014803,83,"[[[""img/mask19.png""],[""img/mask52.png""],[""img/mask34.png""],[""img/mask85.png""],[""img/mask52.png""]]]","","[0,6,7,4,3]","color",60,2,0,90,-116.894367174451,153.105632825549,243.105632825549,206.894367174451,153.105632825549
36,438134,"5bbeb9e16322c500015ae44c",2662,"","[0]","[298]",298,195,135.175639969544,135.175639969544,300.175639969544,298,0,1,0,146.502999995544,80.4159999955446,83,"[[[""img/mask26.png""]]]","","[0]","color",195,2,0,90,135.175639969544,45.1756399695441,135.175639969544,45.1756399695441,45.1756399695441
38,444198,"5bbeb9e16322c500015ae44c",2795.10000000149,"","[7,6,3,2,5]","[194,14,227,82,112]",194,84,332.484777050203,332.484777050203,248.484777050203,248,0,5,0,146.340999997046,80.1559999955352,83,"[[[""img/mask92.png""],[""img/mask14.png""],[""img/mask47.png""],[""img/mask54.png""],[""img/mask60.png""]]]","","[7,6,3,2,5]","color",84,2,7,135,-27.5152229497966,162.515222949797,332.484777050203,162.515222949797,197.484777050203
40,450578,"5bbeb9e16322c500015ae44c",3013.89999999851,"","[1,2,5,7,6]","[172,99,266,13,40]",172,224,297.243430612484,297.243430612484,73.2434306124841,73,0,5,0,145.891999998537,157.310999998532,150,"[[[""img/mask9.png""],[""img/mask21.png""],[""img/mask83.png""],[""img/mask69.png""],[""img/mask98.png""]]]","","[1,2,5,7,6]","color",224,2,1,45,-62.7565693875159,107.756569387516,297.243430612484,107.756569387516,252.243430612484
42,456662,"5bbeb9e16322c500015ae44c",2882.60000000149,"","[3,6,0]","[309,81,26]",309,34,314.81431219077,314.81431219077,280.81431219077,280,0,3,0,147.028000001505,21.4899999955087,16,"[[[""img/mask79.png""],[""img/mask16.png""],[""img/mask33.png""]]]","","[3,6,0]","color",34,2,3,315,314.81431219077,0.18568780923033,314.81431219077,0.18568780923033,0.18568780923033
44,462187,"5bbeb9e16322c500015ae44c",2344.39999999851,"","[3]","[22]",22,127,150.21710610726,150.21710610726,23.2171061072601,22,0,1,0,146.635999995517,86.8580000000075,83,"[[[""img/mask90.png""]]]","","[3]","color",127,2,3,315,510.21710610726,164.78289389274,150.21710610726,195.21710610726,164.78289389274
46,467962,"5bbeb9e16322c500015ae44c",2241.5,"","[6]","[134]",134,55,174.335936526839,174.335936526839,119.335936526839,117,0,1,0,146.896999995515,87.4179999970365,83,"[[[""img/mask3.png""]]]","","[6]","color",55,2,6,180,174.335936526839,5.66406347316143,174.335936526839,5.66406347316143,5.66406347316143
48,473074,"5bbeb9e16322c500015ae44c",1869.70000000298,"","[1]","[210]",210,26,265.183461181986,265.183461181986,239.183461181986,239,0,1,0,145.7730000015,84.6039999999921,83,"[[[""img/mask14.png""]]]","","[1]","color",26,2,1,45,-94.816538818014,139.816538818014,265.183461181986,139.816538818014,220.183461181986
50,478860,"5bbeb9e16322c500015ae44c",2859.60000000149,"","[0,5,7]","[73,96,233]",73,332,317.920801076912,317.920801076912,345.920801076912,345,0,3,0,147.084999998508,18.3419999970356,16,"[[[""img/mask72.png""],[""img/mask67.png""],[""img/mask59.png""]]]","","[0,5,7]","color",332,2,0,90,-42.079198923088,132.079198923088,317.920801076912,132.079198923088,227.920801076912
52,484794,"5bbeb9e16322c500015ae44c",3029.60000000149,"","[0]","[298]",298,15,296.942355673691,296.942355673691,281.942355673691,282,0,1,0,146.637999997009,90.562999996997,83,"[[[""img/mask17.png""]]]","","[0]","color",15,2,0,90,-63.0576443263093,153.057644326309,296.942355673691,153.057644326309,206.942355673691
56,496002,"5bbeb9e16322c500015ae44c",2182.79999999702,"","[2]","[128]",128,110,237.397691718433,237.397691718433,127.397691718433,128,0,1,0,146.921999995538,77.7540000014706,83,"[[[""img/mask28.png""]]]","","[2]","color",110,2,2,0,-122.602308281567,122.602308281567,237.397691718433,122.602308281567,237.397691718433
58,516370,"5bbeb9e16322c500015ae44c",1893.10000000149,"","[1,2,3]","[106,284,172]",106,322,208.43520599503,208.43520599503,246.43520599503,246,0,3,0,146.026999998488,15.1939999955357,16,"[[[""img/mask23.png""],[""img/mask25.png""],[""img/mask75.png""]]]","","[1,2,3]","color",322,2,1,45,-151.56479400497,163.43520599503,208.43520599503,196.56479400497,163.43520599503
60,521464,"5bbeb9e16322c500015ae44c",1735.5,"","[0]","[49]",49,276,286.79857453723,286.79857453723,10.7985745372303,11,0,1,0,143.891000000003,23.3219999999856,16,"[[[""img/mask47.png""]]]","","[0]","color",276,2,0,90,-73.2014254627697,163.20142546277,286.79857453723,163.20142546277,196.79857453723
62,527026,"5bbeb9e16322c500015ae44c",2268.69999999553,"","[2,6,5,7,4]","[256,38,291,216,184]",256,57,310.102288868534,310.102288868534,253.102288868534,256,0,5,0,146.500999998534,155.525999999954,150,"[[[""img/mask54.png""],[""img/mask55.png""],[""img/mask40.png""],[""img/mask63.png""],[""img/mask89.png""]]]","","[2,6,5,7,4]","color",57,2,2,0,-49.8977111314661,49.8977111314661,310.102288868534,49.8977111314661,310.102288868534
64,531947,"5bbeb9e16322c500015ae44c",2009.10000000149,"","[5]","[115]",115,54,173.381019509606,173.381019509606,119.381019509606,118,0,1,0,146.933999995585,79.7590000014752,83,"[[[""img/mask89.png""]]]","","[5]","color",54,2,5,225,533.381019509606,51.6189804903936,173.381019509606,308.381019509606,51.6189804903936
66,538139,"5bbeb9e16322c500015ae44c",2920.70000000298,"","[3,6,4,2,7]","[215,28,148,260,288]",215,273,193.663689437004,193.663689437004,280.663689437004,279,0,5,0,147.215999998502,79.3480000015115,83,"[[[""img/mask29.png""],[""img/mask44.png""],[""img/mask6.png""],[""img/mask9.png""],[""img/mask37.png""]]]","","[3,6,4,2,7]","color",273,2,3,315,193.663689437004,121.336310562996,193.663689437004,121.336310562996,121.336310562996
68,543906,"5bbeb9e16322c500015ae44c",3089.39999999851,"","[0,6,5]","[8,294,341]",8,327,17.182234870054,17.182234870054,50.182234870054,48,0,3,0,147.510000001523,18.3780000015395,16,"[[[""img/mask75.png""],[""img/mask67.png""],[""img/mask79.png""]]]","","[0,6,5]","color",327,2,0,90,17.182234870054,72.817765129946,17.182234870054,72.817765129946,72.817765129946
70,549640,"5bbeb9e16322c500015ae44c",3042.89999999851,"","[7,3,5,6,1]","[259,187,219,79,165]",259,308,91.1615521176381,91.1615521176381,143.161552117638,139,0,5,0,147.22900000005,24.2470000014873,16,"[[[""img/mask53.png""],[""img/mask89.png""],[""img/mask49.png""],[""img/mask84.png""],[""img/mask17.png""]]]","","[7,3,5,6,1]","color",308,2,7,135,91.1615521176381,43.8384478823619,91.1615521176381,43.8384478823619,43.8384478823619
72,554771,"5bbeb9e16322c500015ae44c",1825.19999999553,"","[0,7,1]","[48,17,171]",48,232,279.87107882342,279.87107882342,47.8710788234198,48,0,3,0,147.225999996997,143.334000000032,150,"[[[""img/mask79.png""],[""img/mask52.png""],[""img/mask95.png""]]]","","[0,7,1]","color",232,2,0,90,-80.1289211765802,170.12892117658,279.87107882342,170.12892117658,189.87107882342
74,560060,"5bbeb9e16322c500015ae44c",2536.79999999702,"","[5,3,7]","[200,87,121]",200,229,209.121793082492,209.121793082492,340.121793082492,339,0,3,0,146.663999996963,146.890000001527,150,"[[[""img/mask52.png""],[""img/mask68.png""],[""img/mask43.png""]]]","","[5,3,7]","color",229,2,5,225,209.121793082492,15.8782069175078,209.121793082492,15.8782069175078,15.8782069175078
76,565716,"5bbeb9e16322c500015ae44c",2678.30000000447,"","[0,3,4]","[296,335,62]",296,225,40.4035547645849,40.4035547645849,175.403554764585,173,0,3,0,147.055999998469,16.0270000000019,16,"[[[""img/mask71.png""],[""img/mask57.png""],[""img/mask79.png""]]]","","[0,3,4]","color",225,2,0,90,40.4035547645849,49.5964452354151,40.4035547645849,49.5964452354151,49.5964452354151
78,570916,"5bbeb9e16322c500015ae44c",2464.09999999404,"","[3,1,5,0,4]","[108,313,153,281,194]",108,115,315.465406848352,315.465406848352,200.465406848352,200,0,5,0,146.006999999983,77.1319999955595,83,"[[[""img/mask44.png""],[""img/mask76.png""],[""img/mask34.png""],[""img/mask60.png""],[""img/mask54.png""]]]","","[3,1,5,0,4]","color",115,2,3,315,315.465406848352,0.465406848352245,315.465406848352,0.465406848352245,0.465406848352245
82,582139,"5bbeb9e16322c500015ae44c",2560.79999999702,"","[3]","[137]",137,261,41.7892351463327,41.7892351463327,140.789235146333,138,0,1,0,147.244999995572,79.6659999955446,83,"[[[""img/mask30.png""]]]","","[3]","color",261,2,3,315,401.789235146333,86.7892351463327,41.7892351463327,86.7892351463327,273.210764853667
84,587896,"5bbeb9e16322c500015ae44c",2553.70000000298,"","[3,0,4]","[258,189,151]",258,85,247.53958540526,247.53958540526,162.53958540526,162,0,3,0,147.701000000001,10.6720000015339,16,"[[[""img/mask84.png""],[""img/mask27.png""],[""img/mask100.png""]]]","","[3,0,4]","color",85,2,3,315,247.53958540526,67.4604145947397,247.53958540526,67.4604145947397,67.4604145947397
86,592966,"5bbeb9e16322c500015ae44c",2358.30000000447,"","[0]","[336]",336,307,288.693112750871,288.693112750871,341.693112750871,342,0,1,0,146.623000000021,152.552999999956,150,"[[[""img/mask82.png""]]]","","[0]","color",307,2,0,90,-71.306887249129,161.306887249129,288.693112750871,161.306887249129,198.693112750871
88,597895,"5bbeb9e16322c500015ae44c",2076,"","[5]","[323]",323,246,205.468071570631,205.468071570631,319.468071570631,318,0,1,0,145.883999997051,85.4079999985406,83,"[[[""img/mask76.png""]]]","","[5]","color",246,2,5,225,205.468071570631,19.531928429369,205.468071570631,19.531928429369,19.531928429369
94,615709,"5bbeb9e16322c500015ae44c",2402.39999999851,"","[2,6,3,5,4]","[240,74,40,108,280]",240,61,52.7924190370969,52.7924190370969,351.792419037097,349,0,5,0,147.166999995476,19.231999998563,16,"[[[""img/mask75.png""],[""img/mask37.png""],[""img/mask90.png""],[""img/mask56.png""],[""img/mask7.png""]]]","","[2,6,3,5,4]","color",61,2,2,0,52.7924190370969,52.7924190370969,52.7924190370969,52.7924190370969,52.7924190370969
102,654307,"5bbeb9e16322c500015ae44c",1831.89999999851,"","[5]","[160]",160,34,204.898079063352,204.898079063352,170.898079063352,170,0,1,0,146.989000001457,143.710999998497,150,"[[[""img/mask52.png""]]]","","[5]","color",34,2,5,225,204.898079063352,20.1019209366479,204.898079063352,20.1019209366479,20.1019209366479
104,659655,"5bbeb9e16322c500015ae44c",2266.39999999851,"","[4]","[325]",325,197,217.496394045841,217.496394045841,20.4963940458408,20,0,1,0,147.295999997063,11.2699999985052,16,"[[[""img/mask55.png""]]]","","[4]","color",197,2,4,270,217.496394045841,52.5036059541592,217.496394045841,52.5036059541592,52.5036059541592
106,665788,"5bbeb9e16322c500015ae44c",3402.60000000149,"","[6,0,4]","[66,38,273]",66,219,341.777517301437,341.777517301437,122.777517301437,122,0,3,0,146.488000001526,87.9150000014342,83,"[[[""img/mask13.png""],[""img/mask62.png""],[""img/mask71.png""]]]","","[6,0,4]","color",219,2,6,180,341.777517301437,161.777517301437,341.777517301437,161.777517301437,161.777517301437
108,671613,"5bbeb9e16322c500015ae44c",3147.5,"","[7,4,6,1,3]","[42,162,263,135,339]",42,106,56.1449786005973,56.1449786005973,310.144978600597,307,0,5,0,147.455999998492,14.2359999970067,16,"[[[""img/mask33.png""],[""img/mask27.png""],[""img/mask47.png""],[""img/mask97.png""],[""img/mask43.png""]]]","","[7,4,6,1,3]","color",106,2,7,135,56.1449786005973,78.8550213994027,56.1449786005973,78.8550213994027,78.8550213994027
110,677110,"5bbeb9e16322c500015ae44c",2662.89999999851,"","[6,2,0]","[112,154,323]",112,153,269.286664905088,269.286664905088,116.286664905088,116,0,3,0,147.977999995579,158.19299999997,150,"[[[""img/mask94.png""],[""img/mask15.png""],[""img/mask86.png""]]]","","[6,2,0]","color",153,2,6,180,269.286664905088,89.2866649050878,269.286664905088,89.2866649050878,89.2866649050878
114,686822,"5bbeb9e16322c500015ae44c",2148.70000000298,"","[2,3,7,0,4]","[212,268,27,154,315]",212,83,319.904694907908,319.904694907908,236.904694907908,237,0,5,0,147.379000001471,150.197999999975,150,"[[[""img/mask62.png""],[""img/mask5.png""],[""img/mask3.png""],[""img/mask32.png""],[""img/mask17.png""]]]","","[2,3,7,0,4]","color",83,2,2,0,-40.095305092092,40.095305092092,319.904694907908,40.095305092092,319.904694907908
116,691110,"5bbeb9e16322c500015ae44c",1321.89999999851,"","[2]","[108]",108,175,298.709332845401,298.709332845401,123.709332845401,124,0,1,0,146.775999999954,146.506999997073,150,"[[[""img/mask15.png""]]]","","[2]","color",175,2,2,0,-61.2906671545993,61.2906671545993,298.709332845401,61.2906671545993,298.709332845401
122,707473,"5bbeb9e16322c500015ae44c",1961.80000000447,"","[2,4,0]","[23,275,173]",23,186,206.93747094333,206.93747094333,20.9374709433296,23,0,3,0,147.314999998547,149.939000001526,150,"[[[""img/mask40.png""],[""img/mask86.png""],[""img/mask88.png""]]]","","[2,4,0]","color",186,2,2,0,-153.06252905667,153.06252905667,206.93747094333,153.06252905667,206.93747094333
124,712173,"5bbeb9e16322c500015ae44c",2078.10000000149,"","[6,7,4,0,3]","[335,111,281,138,11]",335,297,224.500267159255,224.500267159255,287.500267159255,287,0,5,0,146.965000001481,11.2340000000549,16,"[[[""img/mask52.png""],[""img/mask54.png""],[""img/mask35.png""],[""img/mask100.png""],[""img/mask20.png""]]]","","[6,7,4,0,3]","color",297,2,6,180,224.500267159255,44.5002671592548,224.500267159255,44.5002671592548,44.5002671592548
126,717061,"5bbeb9e16322c500015ae44c",2270.89999999851,"","[2]","[303]",303,301,46.5979189663459,46.5979189663459,105.597918966346,104,0,1,0,146.113999995519,22.4859999954933,16,"[[[""img/mask61.png""]]]","","[2]","color",301,2,2,0,46.5979189663459,46.5979189663459,46.5979189663459,46.5979189663459,46.5979189663459
128,721578,"5bbeb9e16322c500015ae44c",1753,"","[6]","[84]",84,29,269.735377201794,269.735377201794,240.735377201794,241,0,1,0,147.133999999962,10.096000001533,16,"[[[""img/mask6.png""]]]","","[6]","color",29,2,6,180,269.735377201794,89.7353772017936,269.735377201794,89.7353772017936,89.7353772017936
132,732106,"5bbeb9e16322c500015ae44c",2938.79999999702,"","[2,6,3]","[85,315,6]",85,221,42.2813642052244,42.2813642052244,181.281364205224,178,0,3,0,146.655999998562,147.374999995576,150,"[[[""img/mask38.png""],[""img/mask34.png""],[""img/mask76.png""]]]","","[2,6,3]","color",221,2,2,0,42.2813642052244,42.2813642052244,42.2813642052244,42.2813642052244,42.2813642052244
136,741746,"5bbeb9e16322c500015ae44c",2012.09999999404,"","[4,0,6]","[103,271,309]",103,184,293.503681546103,293.503681546103,109.503681546103,110,0,3,0,146.723999997019,85.9510000015143,83,"[[[""img/mask60.png""],[""img/mask73.png""],[""img/mask33.png""]]]","","[4,0,6]","color",184,2,4,270,293.503681546103,23.5036815461032,293.503681546103,23.5036815461032,23.5036815461032
138,764846,"5bbeb9e16322c500015ae44c",1945.5,"","[0,6,2,3,7]","[284,311,57,171,356]",284,344,80.9166258150645,80.9166258150645,96.9166258150645,94,0,5,0,147.289000001503,16.7499999955762,16,"[[[""img/mask21.png""],[""img/mask70.png""],[""img/mask40.png""],[""img/mask99.png""],[""img/mask12.png""]]]","","[0,6,2,3,7]","color",344,2,0,90,80.9166258150645,9.08337418493548,80.9166258150645,9.08337418493548,9.08337418493548
142,773579,"5bbeb9e16322c500015ae44c",1682.10000000149,"","[3,1,2,6,5]","[358,254,109,293,167]",358,340,3.0146151657707,3.0146151657707,23.0146151657707,21,0,5,0,145.204999995534,87.5190000014845,83,"[[[""img/mask91.png""],[""img/mask75.png""],[""img/mask64.png""],[""img/mask43.png""],[""img/mask36.png""]]]","","[3,1,2,6,5]","color",340,2,3,315,363.014615165771,48.0146151657707,3.0146151657707,48.0146151657707,311.985384834229
148,787816,"5bbeb9e16322c500015ae44c",1942.10000000149,"","[3,6,7,5,0]","[146,84,289,268,124]",146,279,90.0335772061159,90.0335772061159,171.033577206116,168,0,5,0,146.745999995503,142.763999997056,150,"[[[""img/mask98.png""],[""img/mask36.png""],[""img/mask85.png""],[""img/mask70.png""],[""img/mask12.png""]]]","","[3,6,7,5,0]","color",279,2,3,315,450.033577206116,135.033577206116,90.0335772061159,135.033577206116,224.966422793884
150,792280,"5bbeb9e16322c500015ae44c",1727.5,"","[3,2,5,6,1]","[186,111,78,295,249]",186,50,286.623808712311,286.623808712311,236.623808712311,237,0,5,0,146.939999999944,154.163999996963,150,"[[[""img/mask28.png""],[""img/mask3.png""],[""img/mask48.png""],[""img/mask4.png""],[""img/mask83.png""]]]","","[3,2,5,6,1]","color",50,2,3,315,286.623808712311,28.3761912876888,286.623808712311,28.3761912876888,28.3761912876888
152,797481,"5bbeb9e16322c500015ae44c",2462.89999999851,"","[2,3,7]","[116,50,269]",116,163,43.8878406562377,43.8878406562377,240.887840656238,238,0,3,0,146.989999995567,82.5139999970561,83,"[[[""img/mask22.png""],[""img/mask100.png""],[""img/mask40.png""]]]","","[2,3,7]","color",163,2,2,0,43.8878406562377,43.8878406562377,43.8878406562377,43.8878406562377,43.8878406562377
154,803494,"5bbeb9e16322c500015ae44c",1648.69999999553,"","[3,7,2]","[331,55,290]",331,321,299.997559002284,299.997559002284,338.997559002284,339,0,3,0,146.353999997023,144.373999998556,150,"[[[""img/mask94.png""],[""img/mask10.png""],[""img/mask52.png""]]]","","[3,7,2]","color",321,2,3,315,299.997559002284,15.0024409977165,299.997559002284,15.0024409977165,15.0024409977165
158,814315,"5bbeb9e16322c500015ae44c",1541.5,"","[4]","[267]",267,113,46.7896640166709,46.7896640166709,293.789664016671,291,0,1,0,147.799000001512,13.1690000015078,16,"[[[""img/mask25.png""]]]","","[4]","color",113,2,4,270,406.789664016671,136.789664016671,46.7896640166709,136.789664016671,223.210335983329
160,818315,"5bbeb9e16322c500015ae44c",1476.80000000447,"","[2]","[33]",33,352,159.42987089034,159.42987089034,167.42987089034,165,0,1,0,146.452999995556,21.5169999984792,16,"[[[""img/mask14.png""]]]","","[2]","color",352,2,2,0,159.42987089034,159.42987089034,159.42987089034,159.42987089034,159.42987089034
164,828282,"5bbeb9e16322c500015ae44c",1831.29999999702,"","[6]","[141]",141,74,236.163598121993,236.163598121993,162.163598121993,162,0,1,0,146.301999998512,76.8229999999749,83,"[[[""img/mask83.png""]]]","","[6]","color",74,2,6,180,236.163598121993,56.1635981219932,236.163598121993,56.1635981219932,56.1635981219932
166,833493,"5bbeb9e16322c500015ae44c",2428.60000000149,"","[3,4,1]","[334,298,216]",334,83,76.0518372088677,76.0518372088677,353.051837208868,349,0,3,0,147.170000000042,149.084999999963,150,"[[[""img/mask81.png""],[""img/mask49.png""],[""img/mask37.png""]]]","","[3,4,1]","color",83,2,3,315,436.051837208868,121.051837208868,76.0518372088677,121.051837208868,238.948162791132
168,838597,"5bbeb9e16322c500015ae44c",2264.30000000447,"","[5,1,2,7,4]","[147,317,126,89,196]",147,26,182.581566632479,182.581566632479,156.581566632479,155,0,5,0,146.789999995497,80.7219999955269,83,"[[[""img/mask1.png""],[""img/mask47.png""],[""img/mask84.png""],[""img/mask3.png""],[""img/mask60.png""]]]","","[5,1,2,7,4]","color",26,2,5,225,182.581566632479,42.4184333675214,182.581566632479,42.4184333675214,42.4184333675214
172,850489,"5bbeb9e16322c500015ae44c",1566.60000000149,"","[2,1,3,4,0]","[100,158,64,14,349]",100,56,303.082198403215,303.082198403215,247.082198403215,247,0,5,0,147.427999998559,16.5959999954794,16,"[[[""img/mask52.png""],[""img/mask60.png""],[""img/mask37.png""],[""img/mask18.png""],[""img/mask9.png""]]]","","[2,1,3,4,0]","color",56,2,2,0,-56.9178015967852,56.9178015967852,303.082198403215,56.9178015967852,303.082198403215
174,855930,"5bbeb9e16322c500015ae44c",2626,"","[6,3,7]","[260,13,208]",260,280,214.276638642355,214.276638642355,294.276638642355,293,0,3,0,146.675000001444,88.2029999955557,83,"[[[""img/mask61.png""],[""img/mask100.png""],[""img/mask14.png""]]]","","[6,3,7]","color",280,2,6,180,214.276638642355,34.2766386423554,214.276638642355,34.2766386423554,34.2766386423554
176,861132,"5bbeb9e16322c500015ae44c",2314.79999999702,"","[2,0,5]","[195,111,173]",195,184,37.5335911236949,37.5335911236949,213.533591123695,211,0,3,0,147.482000001473,151.388000001432,150,"[[[""img/mask74.png""],[""img/mask55.png""],[""img/mask76.png""]]]","","[2,0,5]","color",184,2,2,0,37.5335911236949,37.5335911236949,37.5335911236949,37.5335911236949,37.5335911236949
178,881826,"5bbeb9e16322c500015ae44c",1602.39999999851,"","[6]","[188]",188,359,342.649417269713,342.649417269713,343.649417269713,342,0,1,0,146.888000000035,16.1579999985406,16,"[[[""img/mask74.png""]]]","","[6]","color",359,2,6,180,342.649417269713,162.649417269713,342.649417269713,162.649417269713,162.649417269713
180,886542,"5bbeb9e16322c500015ae44c",1390.20000000298,"","[7]","[91]",91,331,56.274477899953,56.274477899953,85.2744778999531,82,0,1,0,146.047999998555,81.370999997016,83,"[[[""img/mask59.png""]]]","","[7]","color",331,2,7,135,56.274477899953,78.725522100047,56.274477899953,78.725522100047,78.725522100047
182,890717,"5bbeb9e16322c500015ae44c",1584.39999999851,"","[4]","[223]",223,90,322.605871399784,322.605871399784,232.605871399784,232,0,1,0,146.115999995498,83.5319999955827,83,"[[[""img/mask67.png""]]]","","[4]","color",90,2,4,270,322.605871399784,52.6058713997843,322.605871399784,52.6058713997843,52.6058713997843
184,896230,"5bbeb9e16322c500015ae44c",1981.39999999851,"","[7]","[127]",127,95,216.246294559684,216.246294559684,121.246294559684,120,0,1,0,146.306999998516,24.1809999984689,16,"[[[""img/mask37.png""]]]","","[7]","color",95,2,7,135,-143.753705440316,81.2462945596838,216.246294559684,278.753705440316,81.2462945596838
188,905410,"5bbeb9e16322c500015ae44c",1941.09999999404,"","[2,4,0,3,6]","[124,245,321,201,56]",124,330,7.07106898912466,7.07106898912466,37.0710689891247,35,0,5,0,147.577999997069,13.4519999970216,16,"[[[""img/mask19.png""],[""img/mask90.png""],[""img/mask91.png""],[""img/mask60.png""],[""img/mask42.png""]]]","","[2,4,0,3,6]","color",330,2,2,0,7.07106898912466,7.07106898912466,7.07106898912466,7.07106898912466,7.07106898912466
192,915167,"5bbeb9e16322c500015ae44c",2962.5,"","[5,0,6]","[60,178,131]",60,270,14.1580421144661,14.1580421144661,104.158042114466,102,0,3,0,147.316000001505,10.6940000015311,16,"[[[""img/mask93.png""],[""img/mask98.png""],[""img/mask31.png""]]]","","[5,0,6]","color",270,2,5,225,374.158042114466,149.158042114466,14.1580421144661,149.158042114466,210.841957885534
194,920049,"5bbeb9e16322c500015ae44c",2080.89999999851,"","[3]","[145]",145,185,316.712753666657,316.712753666657,131.712753666657,132,0,1,0,147.184999997029,24.1549999985145,16,"[[[""img/mask81.png""]]]","","[3]","color",185,2,3,315,316.712753666657,1.71275366665702,316.712753666657,1.71275366665702,1.71275366665702
196,926884,"5bbeb9e16322c500015ae44c",4100.39999999851,"","[0,6,3,2,1]","[69,309,167,195,344]",69,197,52.0929515437309,52.0929515437309,215.092951543731,213,0,5,0,147.236999995541,147.060000001453,150,"[[[""img/mask54.png""],[""img/mask43.png""],[""img/mask56.png""],[""img/mask93.png""],[""img/mask79.png""]]]","","[0,6,3,2,1]","color",197,2,0,90,52.0929515437309,37.9070484562691,52.0929515437309,37.9070484562691,37.9070484562691
198,931519,"5bbeb9e16322c500015ae44c",1755.30000000447,"","[3,4,7,6,1]","[253,73,215,12,289]",253,60,91.8671867336869,91.8671867336869,31.8671867336869,28,0,5,0,146.337000001455,151.864999995567,150,"[[[""img/mask42.png""],[""img/mask68.png""],[""img/mask86.png""],[""img/mask92.png""],[""img/mask17.png""]]]","","[3,4,7,6,1]","color",60,2,3,315,451.867186733687,136.867186733687,91.8671867336869,136.867186733687,223.132813266313
200,936413,"5bbeb9e16322c500015ae44c",2185.29999999702,"","[3,0,5]","[39,85,266]",39,225,243.98645274241,243.98645274241,18.98645274241,19,0,3,0,146.682000001543,89.5110000000568,83,"[[[""img/mask83.png""],[""img/mask93.png""],[""img/mask73.png""]]]","","[3,0,5]","color",225,2,3,315,243.98645274241,71.01354725759,243.98645274241,71.01354725759,71.01354725759
202,942527,"5bbeb9e16322c500015ae44c",3084.70000000298,"","[5,7,3,4,6]","[44,160,111,216,298]",44,155,12.6133065143821,12.6133065143821,217.613306514382,216,0,5,0,146.923999998486,74.8609999985201,83,"[[[""img/mask18.png""],[""img/mask14.png""],[""img/mask91.png""],[""img/mask31.png""],[""img/mask81.png""]]]","","[5,7,3,4,6]","color",155,2,5,225,372.613306514382,147.613306514382,12.6133065143821,147.613306514382,212.386693485618
204,947451,"5bbeb9e16322c500015ae44c",2013.30000000447,"","[2,0,3,7,1]","[70,5,93,343,220]",70,53,170.719608641576,170.719608641576,117.719608641576,116,0,5,0,146.802999998559,75.423000001465,83,"[[[""img/mask38.png""],[""img/mask37.png""],[""img/mask60.png""],[""img/mask23.png""],[""img/mask71.png""]]]","","[2,0,3,7,1]","color",53,2,2,0,170.719608641576,170.719608641576,170.719608641576,170.719608641576,170.719608641576
206,952059,"5bbeb9e16322c500015ae44c",1854.10000000149,"","[0,4,7]","[274,320,64]",274,196,75.833894848876,75.833894848876,239.833894848876,236,0,3,0,147.894999996992,12.2629999970086,16,"[[[""img/mask8.png""],[""img/mask82.png""],[""img/mask92.png""]]]","","[0,4,7]","color",196,2,0,90,75.833894848876,14.166105151124,75.833894848876,14.166105151124,14.166105151124
208,957905,"5bbeb9e16322c500015ae44c",2806.89999999851,"","[6,1,3]","[335,100,266]",335,173,108.88998076712,108.88998076712,295.88998076712,292,0,3,0,146.931999998516,84.8579999984941,83,"[[[""img/mask46.png""],[""img/mask51.png""],[""img/mask67.png""]]]","","[6,1,3]","color",173,2,6,180,108.88998076712,71.1100192328796,108.88998076712,71.1100192328796,71.1100192328796
210,964301,"5bbeb9e16322c500015ae44c",2803.60000000149,"","[4,1,3,2,5]","[188,287,79,241,114]",188,122,294.259356577019,294.259356577019,172.259356577019,173,0,5,0,146.801000001491,142.316999995499,150,"[[[""img/mask70.png""],[""img/mask15.png""],[""img/mask42.png""],[""img/mask62.png""],[""img/mask73.png""]]]","","[4,1,3,2,5]","color",122,2,4,270,294.259356577019,24.2593565770186,294.259356577019,24.2593565770186,24.2593565770186
214,973880,"5bbeb9e16322c500015ae44c",1610.79999999702,"","[2]","[266]",266,244,171.63255939236,171.63255939236,287.63255939236,286,0,1,0,146.623999995529,154.435000001453,150,"[[[""img/mask39.png""]]]","","[2]","color",244,2,2,0,171.63255939236,171.63255939236,171.63255939236,171.63255939236,171.63255939236
216,980292,"5bbeb9e16322c500015ae44c",2020,"","[5]","[87]",87,150,267.506070977453,267.506070977453,117.506070977453,117,0,1,0,146.902000001515,10.7760000014678,16,"[[[""img/mask28.png""]]]","","[5]","color",150,2,5,225,267.506070977453,42.506070977453,267.506070977453,42.506070977453,42.506070977453
220,1001109,"5bbeb9e16322c500015ae44c",2614.20000000298,"","[3,6,0,1,7]","[115,287,265,334,222]",115,353,138.955849432496,138.955849432496,145.955849432496,144,0,5,0,146.714000001433,150.316999997012,150,"[[[""img/mask24.png""],[""img/mask95.png""],[""img/mask77.png""],[""img/mask60.png""],[""img/mask48.png""]]]","","[3,6,0,1,7]","color",353,2,3,315,498.955849432496,176.044150567504,138.955849432496,183.955849432496,176.044150567504
222,1005178,"5bbeb9e16322c500015ae44c",1337.20000000298,"","[7]","[223]",223,341,209.566845708059,209.566845708059,228.566845708059,227,0,1,0,146.912000001525,142.933999995585,150,"[[[""img/mask23.png""]]]","","[7]","color",341,2,7,135,-150.433154291941,74.5668457080588,209.566845708059,285.433154291941,74.5668457080588
224,1009936,"5bbeb9e16322c500015ae44c",1886,"","[3]","[3]",3,27,27.7846762549279,27.7846762549279,0.78467625492787,359,0,1,0,146.976999995532,14.0559999984689,16,"[[[""img/mask41.png""]]]","","[3]","color",27,2,3,315,387.784676254928,72.7846762549279,27.7846762549279,72.7846762549279,287.215323745072
226,1015077,"5bbeb9e16322c500015ae44c",2369,"","[6,7,2,5,0]","[15,223,352,86,264]",15,124,190.639799602951,190.639799602951,66.6397996029515,66,0,5,0,145.856000000029,82.2859999999637,83,"[[[""img/mask54.png""],[""img/mask91.png""],[""img/mask84.png""],[""img/mask81.png""],[""img/mask83.png""]]]","","[6,7,2,5,0]","color",124,2,6,180,190.639799602951,10.6397996029515,190.639799602951,10.6397996029515,10.6397996029515
228,1019918,"5bbeb9e16322c500015ae44c",1901,"","[4]","[185]",185,83,272.85132356793,272.85132356793,189.85132356793,190,0,1,0,146.761999999988,157.868999995524,150,"[[[""img/mask7.png""]]]","","[4]","color",83,2,4,270,272.85132356793,2.85132356793031,272.85132356793,2.85132356793031,2.85132356793031
232,1029359,"5bbeb9e16322c500015ae44c",2046.5,"","[4]","[240]",240,128,335.861971470992,335.861971470992,207.861971470992,207,0,1,0,146.511000001454,143.234999998473,150,"[[[""img/mask9.png""]]]","","[4]","color",128,2,4,270,335.861971470992,65.8619714709923,335.861971470992,65.8619714709923,65.8619714709923
234,1034154,"5bbeb9e16322c500015ae44c",2060.59999999404,"","[6]","[16]",16,76,109.321947072174,109.321947072174,33.3219470721735,30,0,1,0,146.260000000009,86.573999998509,83,"[[[""img/mask87.png""]]]","","[6]","color",76,2,6,180,109.321947072174,70.6780529278265,109.321947072174,70.6780529278265,70.6780529278265
236,1039108,"5bbeb9e16322c500015ae44c",2085.70000000298,"","[6,7,4,3,0]","[171,253,102,225,60]",171,315,19.3233278638029,19.3233278638029,64.3233278638029,62,0,5,0,147.415999998455,15.8939999999711,16,"[[[""img/mask7.png""],[""img/mask93.png""],[""img/mask74.png""],[""img/mask95.png""],[""img/mask20.png""]]]","","[6,7,4,3,0]","color",315,2,6,180,19.3233278638029,160.676672136197,19.3233278638029,160.676672136197,160.676672136197
238,1044526,"5bbeb9e16322c500015ae44c",2457.5,"","[7,6,3,1,2]","[79,281,315,221,39]",79,122,93.788384734099,93.788384734099,331.788384734099,329,0,5,0,147.282999998541,148.212999998475,150,"[[[""img/mask38.png""],[""img/mask29.png""],[""img/mask55.png""],[""img/mask93.png""],[""img/mask75.png""]]]","","[7,6,3,1,2]","color",122,2,7,135,93.788384734099,41.211615265901,93.788384734099,41.211615265901,41.211615265901
240,1051418,"5bbeb9e16322c500015ae44c",2705.39999999851,"","[3]","[27]",27,45,68.6149511242336,68.6149511242336,23.6149511242336,20,0,1,0,146.717999997083,85.8519999999553,83,"[[[""img/mask94.png""]]]","","[3]","color",45,2,3,315,428.614951124234,113.614951124234,68.6149511242336,113.614951124234,246.385048875766
244,1062171,"5bbeb9e16322c500015ae44c",3162.5,"","[3,5,7]","[320,289,262]",320,284,266.786165778183,266.786165778183,342.786165778183,343,0,3,0,147.259999995586,11.4350000000559,16,"[[[""img/mask63.png""],[""img/mask13.png""],[""img/mask84.png""]]]","","[3,5,7]","color",284,2,3,315,266.786165778183,48.2138342218167,266.786165778183,48.2138342218167,48.2138342218167
248,1072773,"5bbeb9e16322c500015ae44c",2597.60000000149,"","[4,1,7,3,2]","[282,305,36,111,227]",282,34,314.324235115233,314.324235115233,280.324235115233,282,0,5,0,147.116999995429,157.026999995578,150,"[[[""img/mask64.png""],[""img/mask7.png""],[""img/mask22.png""],[""img/mask62.png""],[""img/mask23.png""]]]","","[4,1,7,3,2]","color",34,2,4,270,314.324235115233,44.324235115233,314.324235115233,44.324235115233,44.324235115233
250,1082113,"5bbeb9e16322c500015ae44c",4332.80000000447,"","[2,4,6]","[43,111,4]",43,150,110.054229717133,110.054229717133,320.054229717133,317,0,3,0,146.618999999948,150.423999998486,150,"[[[""img/mask82.png""],[""img/mask69.png""],[""img/mask6.png""]]]","","[2,4,6]","color",150,2,2,0,110.054229717133,110.054229717133,110.054229717133,110.054229717133,110.054229717133
252,1087856,"5bbeb9e16322c500015ae44c",2626.20000000298,"","[6,7,5]","[82,154,285]",82,312,243.008075253574,243.008075253574,291.008075253574,291,0,3,0,147.331000001403,14.1029999998864,16,"[[[""img/mask24.png""],[""img/mask1.png""],[""img/mask8.png""]]]","","[6,7,5]","color",312,2,6,180,243.008075253574,63.0080752535736,243.008075253574,63.0080752535736,63.0080752535736
254,1094226,"5bbeb9e16322c500015ae44c",3482.60000000149,"","[3,5,4]","[258,36,69]",258,283,164.300108766081,164.300108766081,241.300108766081,239,0,3,0,146.529000000097,157.336999998428,150,"[[[""img/mask99.png""],[""img/mask65.png""],[""img/mask8.png""]]]","","[3,5,4]","color",283,2,3,315,524.300108766081,150.699891233919,164.300108766081,209.300108766081,150.699891233919
260,1176153,"5bbeb9e16322c500015ae44c",1766.80000000447,"","[3,1,0]","[74,269,231]",74,170,302.224858332639,302.224858332639,132.224858332639,133,0,3,0,147.472999995574,14.6480000000447,16,"[[[""img/mask58.png""],[""img/mask100.png""],[""img/mask22.png""]]]","","[3,1,0]","color",170,2,3,315,302.224858332639,12.7751416673614,302.224858332639,12.7751416673614,12.7751416673614
262,1180360,"5bbeb9e16322c500015ae44c",1676.80000000447,"","[2,7,5]","[94,326,145]",94,4,33.7715144308023,33.7715144308023,29.7715144308023,28,0,3,0,146.933999998495,78.5650000015739,83,"[[[""img/mask21.png""],[""img/mask74.png""],[""img/mask50.png""]]]","","[2,7,5]","color",4,2,2,0,33.7715144308023,33.7715144308023,33.7715144308023,33.7715144308023,33.7715144308023
264,1184825,"5bbeb9e16322c500015ae44c",1961.59999999404,"","[4,7,1,6,2]","[160,260,307,335,215]",160,174,326.609954675327,326.609954675327,152.609954675327,152,0,5,0,147.185000000056,11.8609999970067,16,"[[[""img/mask96.png""],[""img/mask18.png""],[""img/mask90.png""],[""img/mask9.png""],[""img/mask61.png""]]]","","[4,7,1,6,2]","color",174,2,4,270,326.609954675327,56.6099546753269,326.609954675327,56.6099546753269,56.6099546753269
268,1195782,"5bbeb9e16322c500015ae44c",2376.79999999702,"","[7,2,3,4,1]","[326,29,79,212,2]",326,305,125.093578480943,125.093578480943,180.093578480943,177,0,5,0,146.391999995569,9.47099999850616,16,"[[[""img/mask17.png""],[""img/mask63.png""],[""img/mask10.png""],[""img/mask20.png""],[""img/mask12.png""]]]","","[7,2,3,4,1]","color",305,2,7,135,125.093578480943,9.90642151905739,125.093578480943,9.90642151905739,9.90642151905739
