success,timeout,failed_images,failed_audio,failed_video,trial_type,trial_index,time_elapsed,internal_node_id,subject_id,study_id,session_id,rt,stimulus,response,position_of_items,colors_of_items,color_of_target,wheel_spin,response_angle,physical_response_angle,reported_color_angle,reported_color_discrete,which_test,set_size,wheel_num_options,actual_mask_duration,actual_stim_duration,CMDispTime,maskArray,maskRotation,item_positions,task,randomSpinAmount,subNo
"","","","","","continuous-colorCM7",498,1762851,"0.0-10.0-1.239-0.239","558943fafdf99b5ccd435cb3","62ffb23f2636bd43a6cd2f50","62ffbdeca750e67504589226",2199,"","","[4]","[169]",169,3,221.59302770301,221.59302770301,218.59302770301,219,0,1,0,144.688000000082,148.027999999933,150,"[[[""img/mask41.png""]]]","","[4]","color",3,1
"","","","","","survey-text",499,1774675,"0.0-11.0","558943fafdf99b5ccd435cb3","62ffb23f2636bd43a6cd2f50","62ffbdeca750e67504589226",11818,"","{""Q0"":""No""}","","",NaN,NaN,NaN,NaN,NaN,NaN,NaN,NaN,NaN,NaN,NaN,NaN,"","","","",NaN,1
"","","","","","survey-text",500,1815692,"0.0-12.0","558943fafdf99b5ccd435cb3","62ffb23f2636bd43a6cd2f50","62ffbdeca750e67504589226",41004,"","{""Q0"":""50"",""Q1"":""Just what I thought my eyes perceived""}","","",NaN,NaN,NaN,NaN,NaN,NaN,NaN,NaN,NaN,NaN,NaN,NaN,"","","","",NaN,1
"","","","","","html-button-response",501,1829587,"0.0-13.0","558943fafdf99b5ccd435cb3","62ffb23f2636bd43a6cd2f50","62ffbdeca750e67504589226",13892,"<p style=""font-size: 24px; "">When making guesses, people might guess some colors more than others. Which colors do you think people are most likely to guess?  </p> <p>  </p><p> </p> We are now going to show you the color wheel you used during the experiment. </p> <p>  </p><p> </p> Use the mouse to select 3 regions on the color wheel that you think people would be more likely to select when guessing. </p> <p>  </p><p> </p> It is fine to select nearby regions if needed.  </p>","0","","",NaN,NaN,NaN,NaN,NaN,NaN,NaN,NaN,NaN,NaN,NaN,NaN,"","","","",NaN,1
"","","","","","color-report-last-question",502,1841766,"0.0-14.0","558943fafdf99b5ccd435cb3","62ffb23f2636bd43a6cd2f50","62ffbdeca750e67504589226",4875915411114,"","","[5]","[83]",83,90,13.8333664278129,128.533793964008,38.5337939640084,36197282,0,1,0,0,0,NaN,"","","","Q4colorReportOthers",NaN,1
"","","","","","html-button-response",503,1872515,"0.0-15.0","558943fafdf99b5ccd435cb3","62ffb23f2636bd43a6cd2f50","62ffbdeca750e67504589226",30746,"<p style=""font-size: 24px; "">This time, consider only your own experience, which may be the same or different from how others guess.  </p> <p>  </p><p> </p> Did you notice any patterns in the colors you chose when you were guessing? </p> <p>  </p><p> </p> Use the mouse to select 3 regions on the color wheel that you think you were more likely to select when guessing. </p> <p>  </p><p> </p> It is okay to select the same region, and it is okay if your answers are similar to the previous question. </p> <p>  </p><p> </p> <br> <br> <br>  </p>","0","","",NaN,NaN,NaN,NaN,NaN,NaN,NaN,NaN,NaN,NaN,NaN,NaN,"","","","",NaN,1
"","","","","","color-report-last-question",504,1880094,"0.0-16.0","558943fafdf99b5ccd435cb3","62ffb23f2636bd43a6cd2f50","62ffbdeca750e67504589226",176741126528,"","","[5]","[153]",153,90,224.459889268173,148.348053389899,58.3480533898988,56238132,0,1,0,0,0,NaN,"","","","Q5colorReportSelf",NaN,1
"","","","","","continuous-colorCM7",498,1903293,"0.0-10.0-1.239-0.239","5bbeb9e16322c500015ae44c","62ffb23f2636bd43a6cd2f50","62ffc10a5201cf4c9e97e605",2070.60000000149,"","","[0,1,7]","[352,189,230]",352,245,96.9645724128837,96.9645724128837,211.964572412884,208,0,3,0,144.421999995597,0,0,"[[[""img/mask55.png""],[""img/mask77.png""],[""img/mask54.png""]]]","","[0,1,7]","color",245,2
"","","","","","survey-text",499,1916426,"0.0-11.0","5bbeb9e16322c500015ae44c","62ffb23f2636bd43a6cd2f50","62ffc10a5201cf4c9e97e605",13112.3999999985,"","{""Q0"":""I didn't notice anything strange.""}","","",NaN,NaN,NaN,NaN,NaN,NaN,NaN,NaN,NaN,NaN,NaN,NaN,"","","","",NaN,2
"","","","","","survey-text",500,1946039,"0.0-12.0","5bbeb9e16322c500015ae44c","62ffb23f2636bd43a6cd2f50","62ffc10a5201cf4c9e97e605",29573.1000000015,"","{""Q0"":""50"",""Q1"":""I just went with my gut, or whatever my first instinct was.""}","","",NaN,NaN,NaN,NaN,NaN,NaN,NaN,NaN,NaN,NaN,NaN,NaN,"","","","",NaN,2
"","","","","","html-button-response",501,1954671,"0.0-13.0","5bbeb9e16322c500015ae44c","62ffb23f2636bd43a6cd2f50","62ffc10a5201cf4c9e97e605",8618.79999999702,"<p style=""font-size: 24px; "">When making guesses, people might guess some colors more than others. Which colors do you think people are most likely to guess?  </p> <p>  </p><p> </p> We are now going to show you the color wheel you used during the experiment. </p> <p>  </p><p> </p> Use the mouse to select 3 regions on the color wheel that you think people would be more likely to select when guessing. </p> <p>  </p><p> </p> It is fine to select nearby regions if needed.  </p>","0","","",NaN,NaN,NaN,NaN,NaN,NaN,NaN,NaN,NaN,NaN,NaN,NaN,"","","","",NaN,2
"","","","","","color-report-last-question",502,1965047,"0.0-14.0","5bbeb9e16322c500015ae44c","62ffb23f2636bd43a6cd2f50","62ffc10a5201cf4c9e97e605",2025.59999999404,"","","[5]","[145]",145,90,212.708651237133,313.547742025017,223.547742025017,22221121,0,1,0,0,0,NaN,"","","","Q4colorReportOthers",NaN,2
"","","","","","html-button-response",503,1970599,"0.0-15.0","5bbeb9e16322c500015ae44c","62ffb23f2636bd43a6cd2f50","62ffc10a5201cf4c9e97e605",5544.80000000447,"<p style=""font-size: 24px; "">This time, consider only your own experience, which may be the same or different from how others guess.  </p> <p>  </p><p> </p> Did you notice any patterns in the colors you chose when you were guessing? </p> <p>  </p><p> </p> Use the mouse to select 3 regions on the color wheel that you think you were more likely to select when guessing. </p> <p>  </p><p> </p> It is okay to select the same region, and it is okay if your answers are similar to the previous question. </p> <p>  </p><p> </p> <br> <br> <br>  </p>","0","","",NaN,NaN,NaN,NaN,NaN,NaN,NaN,NaN,NaN,NaN,NaN,NaN,"","","","",NaN,2
"","","","","","color-report-last-question",504,1976829,"0.0-16.0","5bbeb9e16322c500015ae44c","62ffb23f2636bd43a6cd2f50","62ffc10a5201cf4c9e97e605",1384.80000000447,"","","[4]","[201]",201,90,297.992053044593,6.87793497895213,276.877934978952,276114207,0,1,0,0,0,NaN,"","","","Q5colorReportSelf",NaN,2
"","","","","","continuous-colorCM7",498,1336387,"0.0-10.0-1.239-0.239","5c7070519f9392000150023c","62ffb23f2636bd43a6cd2f50","62ffc15bc26a6c447857fc99",1534.20000004768,"","","[4,2,6,0,1]","[107,12,184,232,256]",107,229,266.628434307848,266.628434307848,37.6284343078479,38,0,5,0,148.44299995224,17.9390000237618,16,"[[[""img/mask65.png""],[""img/mask51.png""],[""img/mask21.png""],[""img/mask67.png""],[""img/mask75.png""]]]","","[4,2,6,0,1]","color",229,3
"","","","","","survey-text",499,1346461,"0.0-11.0","5c7070519f9392000150023c","62ffb23f2636bd43a6cd2f50","62ffc15bc26a6c447857fc99",10057.3000000715,"","{""Q0"":""No""}","","",NaN,NaN,NaN,NaN,NaN,NaN,NaN,NaN,NaN,NaN,NaN,NaN,"","","","",NaN,3
"","","","","","survey-text",500,1404752,"0.0-12.0","5c7070519f9392000150023c","62ffb23f2636bd43a6cd2f50","62ffc15bc26a6c447857fc99",58284.2999999523,"","{""Q0"":""60"",""Q1"":""I chose the color closest to the solid black circle.""}","","",NaN,NaN,NaN,NaN,NaN,NaN,NaN,NaN,NaN,NaN,NaN,NaN,"","","","",NaN,3
"","","","","","html-button-response",501,1417366,"0.0-13.0","5c7070519f9392000150023c","62ffb23f2636bd43a6cd2f50","62ffc15bc26a6c447857fc99",12613,"<p style=""font-size: 24px; "">When making guesses, people might guess some colors more than others. Which colors do you think people are most likely to guess?  </p> <p>  </p><p> </p> We are now going to show you the color wheel you used during the experiment. </p> <p>  </p><p> </p> Use the mouse to select 3 regions on the color wheel that you think people would be more likely to select when guessing. </p> <p>  </p><p> </p> It is fine to select nearby regions if needed.  </p>","0","","",NaN,NaN,NaN,NaN,NaN,NaN,NaN,NaN,NaN,NaN,NaN,NaN,"","","","",NaN,3
"","","","","","color-report-last-question",502,1436162,"0.0-14.0","5c7070519f9392000150023c","62ffb23f2636bd43a6cd2f50","62ffc15bc26a6c447857fc99",919.300000071526,"","","[2]","[115]",115,90,16.9368950485913,98.8666760441444,8.8666760441443,7334285,0,1,0,0,0,NaN,"","","","Q4colorReportOthers",NaN,3
"","","","","","html-button-response",503,1446079,"0.0-15.0","5c7070519f9392000150023c","62ffb23f2636bd43a6cd2f50","62ffc15bc26a6c447857fc99",9916.40000009537,"<p style=""font-size: 24px; "">This time, consider only your own experience, which may be the same or different from how others guess.  </p> <p>  </p><p> </p> Did you notice any patterns in the colors you chose when you were guessing? </p> <p>  </p><p> </p> Use the mouse to select 3 regions on the color wheel that you think you were more likely to select when guessing. </p> <p>  </p><p> </p> It is okay to select the same region, and it is okay if your answers are similar to the previous question. </p> <p>  </p><p> </p> <br> <br> <br>  </p>","0","","",NaN,NaN,NaN,NaN,NaN,NaN,NaN,NaN,NaN,NaN,NaN,NaN,"","","","",NaN,3
"","","","","","color-report-last-question",504,1455659,"0.0-16.0","5c7070519f9392000150023c","62ffb23f2636bd43a6cd2f50","62ffc15bc26a6c447857fc99",1829.10000002384,"","","[0]","[309]",309,90,140.281240628445,76.8367675103005,346.836767510301,345848,0,1,0,0,0,NaN,"","","","Q5colorReportSelf",NaN,3
"","","","","","continuous-colorCM7",498,2133512,"0.0-10.0-1.239-0.239","5cb41e6bcdcbe90001b2ace4","62ffb23f2636bd43a6cd2f50","62ffbcb7e587075d3ba584d9",1329.30000001192,"","","[5]","[25]",25,231,253.174252983682,253.174252983682,22.1742529836819,25,0,1,0,145.918000023812,86.8910000058822,83,"[[[""img/mask64.png""]]]","","[5]","color",231,4
"","","","","","survey-text",499,2178843,"0.0-11.0","5cb41e6bcdcbe90001b2ace4","62ffb23f2636bd43a6cd2f50","62ffbcb7e587075d3ba584d9",45324.2000000179,"","{""Q0"":""The color wheel was rotated for each trial, and oftentimes the color of the dot that is being asked about would be lined up in the color wheel by the dot itself""}","","",NaN,NaN,NaN,NaN,NaN,NaN,NaN,NaN,NaN,NaN,NaN,NaN,"","","","",NaN,4
"","","","","","survey-text",500,2210194,"0.0-12.0","5cb41e6bcdcbe90001b2ace4","62ffb23f2636bd43a6cd2f50","62ffbcb7e587075d3ba584d9",31345.1999999881,"","{""Q0"":""40%"",""Q1"":""I usually chose a color I thought I saw in the masks that subsequently covered the dot""}","","",NaN,NaN,NaN,NaN,NaN,NaN,NaN,NaN,NaN,NaN,NaN,NaN,"","","","",NaN,4
"","","","","","html-button-response",501,2219552,"0.0-13.0","5cb41e6bcdcbe90001b2ace4","62ffb23f2636bd43a6cd2f50","62ffbcb7e587075d3ba584d9",9354.29999998212,"<p style=""font-size: 24px; "">When making guesses, people might guess some colors more than others. Which colors do you think people are most likely to guess?  </p> <p>  </p><p> </p> We are now going to show you the color wheel you used during the experiment. </p> <p>  </p><p> </p> Use the mouse to select 3 regions on the color wheel that you think people would be more likely to select when guessing. </p> <p>  </p><p> </p> It is fine to select nearby regions if needed.  </p>","0","","",NaN,NaN,NaN,NaN,NaN,NaN,NaN,NaN,NaN,NaN,NaN,NaN,"","","","",NaN,4
"","","","","","color-report-last-question",502,2228756,"0.0-14.0","5cb41e6bcdcbe90001b2ace4","62ffb23f2636bd43a6cd2f50","62ffbcb7e587075d3ba584d9",2869.19999998808,"","","[5]","[343]",343,90,104.281095735971,24.5074052301297,294.50740523013,29417412,0,1,0,0,0,NaN,"","","","Q4colorReportOthers",NaN,4
"","","","","","html-button-response",503,2234565,"0.0-15.0","5cb41e6bcdcbe90001b2ace4","62ffb23f2636bd43a6cd2f50","62ffbcb7e587075d3ba584d9",5806.5,"<p style=""font-size: 24px; "">This time, consider only your own experience, which may be the same or different from how others guess.  </p> <p>  </p><p> </p> Did you notice any patterns in the colors you chose when you were guessing? </p> <p>  </p><p> </p> Use the mouse to select 3 regions on the color wheel that you think you were more likely to select when guessing. </p> <p>  </p><p> </p> It is okay to select the same region, and it is okay if your answers are similar to the previous question. </p> <p>  </p><p> </p> <br> <br> <br>  </p>","0","","",NaN,NaN,NaN,NaN,NaN,NaN,NaN,NaN,NaN,NaN,NaN,NaN,"","","","",NaN,4
"","","","","","color-report-last-question",504,2244113,"0.0-16.0","5cb41e6bcdcbe90001b2ace4","62ffb23f2636bd43a6cd2f50","62ffbcb7e587075d3ba584d9",810.56662,"","","[1]","[224]",224,90,6.37718062360736,217.534809143879,127.534809143879,126185275,0,1,0,0,0,NaN,"","","","Q5colorReportSelf",NaN,4
"","","","","","continuous-colorCM7",498,1672399,"0.0-10.0-1.239-0.239","5d86d05f9854a60019240621","62ffb23f2636bd43a6cd2f50","62ffbcd0f1aeabad9f3976b8",1455,"","","[1,5,0]","[37,167,198]",37,11,200.930848488653,200.930848488653,189.930848488653,189,0,3,0,149.419999999925,157.739999999991,150,"[[[""img/mask76.png""],[""img/mask25.png""],[""img/mask63.png""]]]","","[1,5,0]","color",11,5
"","","","","","survey-text",499,1712768,"0.0-11.0","5d86d05f9854a60019240621","62ffb23f2636bd43a6cd2f50","62ffbcd0f1aeabad9f3976b8",40365,"","{""Q0"":""Some of the masks were so fast I could only remember the color of the actual mask and barely the dot. ""}","","",NaN,NaN,NaN,NaN,NaN,NaN,NaN,NaN,NaN,NaN,NaN,NaN,"","","","",NaN,5
"","","","","","survey-text",500,1745735,"0.0-12.0","5d86d05f9854a60019240621","62ffb23f2636bd43a6cd2f50","62ffbcd0f1aeabad9f3976b8",32961,"","{""Q0"":""20"",""Q1"":""I tried to remember the first color that I saw. ""}","","",NaN,NaN,NaN,NaN,NaN,NaN,NaN,NaN,NaN,NaN,NaN,NaN,"","","","",NaN,5
"","","","","","html-button-response",501,1756797,"0.0-13.0","5d86d05f9854a60019240621","62ffb23f2636bd43a6cd2f50","62ffbcd0f1aeabad9f3976b8",11062,"<p style=""font-size: 24px; "">When making guesses, people might guess some colors more than others. Which colors do you think people are most likely to guess?  </p> <p>  </p><p> </p> We are now going to show you the color wheel you used during the experiment. </p> <p>  </p><p> </p> Use the mouse to select 3 regions on the color wheel that you think people would be more likely to select when guessing. </p> <p>  </p><p> </p> It is fine to select nearby regions if needed.  </p>","0","","",NaN,NaN,NaN,NaN,NaN,NaN,NaN,NaN,NaN,NaN,NaN,NaN,"","","","",NaN,5
"","","","","","color-report-last-question",502,1770568,"0.0-14.0","5d86d05f9854a60019240621","62ffb23f2636bd43a6cd2f50","62ffbcd0f1aeabad9f3976b8",4220856412747,"","","[0]","[231]",231,90,81.2025892900089,217.446830224971,127.446830224971,126202349,0,1,0,0,0,NaN,"","","","Q4colorReportOthers",NaN,5
"","","","","","html-button-response",503,1779486,"0.0-15.0","5d86d05f9854a60019240621","62ffb23f2636bd43a6cd2f50","62ffbcd0f1aeabad9f3976b8",8917,"<p style=""font-size: 24px; "">This time, consider only your own experience, which may be the same or different from how others guess.  </p> <p>  </p><p> </p> Did you notice any patterns in the colors you chose when you were guessing? </p> <p>  </p><p> </p> Use the mouse to select 3 regions on the color wheel that you think you were more likely to select when guessing. </p> <p>  </p><p> </p> It is okay to select the same region, and it is okay if your answers are similar to the previous question. </p> <p>  </p><p> </p> <br> <br> <br>  </p>","0","","",NaN,NaN,NaN,NaN,NaN,NaN,NaN,NaN,NaN,NaN,NaN,NaN,"","","","",NaN,5
"","","","","","color-report-last-question",504,1784361,"0.0-16.0","5d86d05f9854a60019240621","62ffb23f2636bd43a6cd2f50","62ffbcd0f1aeabad9f3976b8",29627683832,"","","[6]","[210]",210,90,178.902513946619,92.0535505635113,2.053550563511,17388,0,1,0,0,0,NaN,"","","","Q5colorReportSelf",NaN,5
"","","","","","continuous-colorCM7",498,1780998,"0.0-10.0-1.239-0.239","5dd00a19b51b3e103a6f50c8","62ffb23f2636bd43a6cd2f50","62ffc05df98f76be00609134",1881.08000000636,"","","[2,3,1,7,4]","[333,173,253,141,306]",333,10,311.11914106038,311.11914106038,301.11914106038,301,0,5,0,147.799000003608,158.110000004992,150,"[[[""img/mask38.png""],[""img/mask16.png""],[""img/mask49.png""],[""img/mask31.png""],[""img/mask60.png""]]]","","[2,3,1,7,4]","color",10,6
"","","","","","survey-text",499,1789508,"0.0-11.0","5dd00a19b51b3e103a6f50c8","62ffb23f2636bd43a6cd2f50","62ffc05df98f76be00609134",8414.20500000822,"","{""Q0"":""""}","","",NaN,NaN,NaN,NaN,NaN,NaN,NaN,NaN,NaN,NaN,NaN,NaN,"","","","",NaN,6
"","","","","","survey-text",500,1852141,"0.0-12.0","5dd00a19b51b3e103a6f50c8","62ffb23f2636bd43a6cd2f50","62ffc05df98f76be00609134",62592.2549999959,"","{""Q0"":""85"",""Q1"":""I chose the color that seemed dominant in my field of view.""}","","",NaN,NaN,NaN,NaN,NaN,NaN,NaN,NaN,NaN,NaN,NaN,NaN,"","","","",NaN,6
"","","","","","html-button-response",501,1863650,"0.0-13.0","5dd00a19b51b3e103a6f50c8","62ffb23f2636bd43a6cd2f50","62ffc05df98f76be00609134",11474.6999999916,"<p style=""font-size: 24px; "">When making guesses, people might guess some colors more than others. Which colors do you think people are most likely to guess?  </p> <p>  </p><p> </p> We are now going to show you the color wheel you used during the experiment. </p> <p>  </p><p> </p> Use the mouse to select 3 regions on the color wheel that you think people would be more likely to select when guessing. </p> <p>  </p><p> </p> It is fine to select nearby regions if needed.  </p>","0","","",NaN,NaN,NaN,NaN,NaN,NaN,NaN,NaN,NaN,NaN,NaN,NaN,"","","","",NaN,6
"","","","","","color-report-last-question",502,1872936,"0.0-14.0","5dd00a19b51b3e103a6f50c8","62ffb23f2636bd43a6cd2f50","62ffc05df98f76be00609134",2321.90999999875,"","","[1]","[262]",262,90,294.350851548237,77.0560127497036,347.056012749704,345140202,0,1,0,0,0,NaN,"","","","Q4colorReportOthers",NaN,6
"","","","","","html-button-response",503,1897663,"0.0-15.0","5dd00a19b51b3e103a6f50c8","62ffb23f2636bd43a6cd2f50","62ffc05df98f76be00609134",24724.504999991,"<p style=""font-size: 24px; "">This time, consider only your own experience, which may be the same or different from how others guess.  </p> <p>  </p><p> </p> Did you notice any patterns in the colors you chose when you were guessing? </p> <p>  </p><p> </p> Use the mouse to select 3 regions on the color wheel that you think you were more likely to select when guessing. </p> <p>  </p><p> </p> It is okay to select the same region, and it is okay if your answers are similar to the previous question. </p> <p>  </p><p> </p> <br> <br> <br>  </p>","0","","",NaN,NaN,NaN,NaN,NaN,NaN,NaN,NaN,NaN,NaN,NaN,NaN,"","","","",NaN,6
"","","","","","color-report-last-question",504,1908433,"0.0-16.0","5dd00a19b51b3e103a6f50c8","62ffb23f2636bd43a6cd2f50","62ffc05df98f76be00609134",3718.97499999637,"","","[7]","[255]",255,90,227.711145356486,84.5596679689945,354.559667968995,353244136,0,1,0,0,0,NaN,"","","","Q5colorReportSelf",NaN,6
"","","","","","continuous-colorCM7",498,1342304,"0.0-10.0-1.239-0.239","6108cf43ced91eae8decfb72","62ffb23f2636bd43a6cd2f50","62ffbf9f749c4ba22097e622",1041,"","","[5]","[29]",29,262,263.934357837724,263.934357837724,1.93435783772418,3,0,1,0,133,76,83,"[[[""img/mask55.png""]]]","","[5]","color",262,7
"","","","","","survey-text",499,1348248,"0.0-11.0","6108cf43ced91eae8decfb72","62ffb23f2636bd43a6cd2f50","62ffbf9f749c4ba22097e622",5905,"","{""Q0"":""no""}","","",NaN,NaN,NaN,NaN,NaN,NaN,NaN,NaN,NaN,NaN,NaN,NaN,"","","","",NaN,7
"","","","","","survey-text",500,1395662,"0.0-12.0","6108cf43ced91eae8decfb72","62ffb23f2636bd43a6cd2f50","62ffbf9f749c4ba22097e622",47381.9999999998,"","{""Q0"":""97%"",""Q1"":""moved to where the circle was or just moved my arrow down because that was most convenient for me""}","","",NaN,NaN,NaN,NaN,NaN,NaN,NaN,NaN,NaN,NaN,NaN,NaN,"","","","",NaN,7
"","","","","","html-button-response",501,1401622,"0.0-13.0","6108cf43ced91eae8decfb72","62ffb23f2636bd43a6cd2f50","62ffbf9f749c4ba22097e622",5953,"<p style=""font-size: 24px; "">When making guesses, people might guess some colors more than others. Which colors do you think people are most likely to guess?  </p> <p>  </p><p> </p> We are now going to show you the color wheel you used during the experiment. </p> <p>  </p><p> </p> Use the mouse to select 3 regions on the color wheel that you think people would be more likely to select when guessing. </p> <p>  </p><p> </p> It is fine to select nearby regions if needed.  </p>","0","","",NaN,NaN,NaN,NaN,NaN,NaN,NaN,NaN,NaN,NaN,NaN,NaN,"","","","",NaN,7
"","","","","","color-report-last-question",502,1407054,"0.0-14.0","6108cf43ced91eae8decfb72","62ffb23f2636bd43a6cd2f50","62ffbf9f749c4ba22097e622",48132864358,"","","[0]","[180]",180,90,131.936388340448,54.2534050682314,324.253405068231,32235940,0,1,0,0,0,NaN,"","","","Q4colorReportOthers",NaN,7
"","","","","","html-button-response",503,1416517,"0.0-15.0","6108cf43ced91eae8decfb72","62ffb23f2636bd43a6cd2f50","62ffbf9f749c4ba22097e622",9461,"<p style=""font-size: 24px; "">This time, consider only your own experience, which may be the same or different from how others guess.  </p> <p>  </p><p> </p> Did you notice any patterns in the colors you chose when you were guessing? </p> <p>  </p><p> </p> Use the mouse to select 3 regions on the color wheel that you think you were more likely to select when guessing. </p> <p>  </p><p> </p> It is okay to select the same region, and it is okay if your answers are similar to the previous question. </p> <p>  </p><p> </p> <br> <br> <br>  </p>","0","","",NaN,NaN,NaN,NaN,NaN,NaN,NaN,NaN,NaN,NaN,NaN,NaN,"","","","",NaN,7
"","","","","","color-report-last-question",504,1419187,"0.0-16.0","6108cf43ced91eae8decfb72","62ffb23f2636bd43a6cd2f50","62ffbf9f749c4ba22097e622",2078671605,"","","[6]","[349]",349,90,72.863725496424,57.3341054698427,327.334105469843,326331341,0,1,0,0,0,NaN,"","","","Q5colorReportSelf",NaN,7
"","","","","","continuous-colorCM7",498,1151608,"0.0-10.0-1.239-0.239","610b75e4f4c98c21a7036828","62ffb23f2636bd43a6cd2f50","62ffc0cb7a32f63eef9e975c",1044,"","","[6,3,1]","[125,28,85]",125,46,129.713760480294,129.713760480294,83.7137604802936,81,0,3,0,148,0,0,"[[[""img/mask31.png""],[""img/mask33.png""],[""img/mask25.png""]]]","","[6,3,1]","color",46,8
"","","","","","survey-text",499,1158045,"0.0-11.0","610b75e4f4c98c21a7036828","62ffb23f2636bd43a6cd2f50","62ffc0cb7a32f63eef9e975c",6430,"","{""Q0"":""NA""}","","",NaN,NaN,NaN,NaN,NaN,NaN,NaN,NaN,NaN,NaN,NaN,NaN,"","","","",NaN,8
"","","","","","survey-text",500,1202467,"0.0-12.0","610b75e4f4c98c21a7036828","62ffb23f2636bd43a6cd2f50","62ffc0cb7a32f63eef9e975c",44416.0000000002,"","{""Q0"":""50"",""Q1"":""I tried my best to avoid the colors I knew i saw with a different dot""}","","",NaN,NaN,NaN,NaN,NaN,NaN,NaN,NaN,NaN,NaN,NaN,NaN,"","","","",NaN,8
"","","","","","html-button-response",501,1210719,"0.0-13.0","610b75e4f4c98c21a7036828","62ffb23f2636bd43a6cd2f50","62ffc0cb7a32f63eef9e975c",8248,"<p style=""font-size: 24px; "">When making guesses, people might guess some colors more than others. Which colors do you think people are most likely to guess?  </p> <p>  </p><p> </p> We are now going to show you the color wheel you used during the experiment. </p> <p>  </p><p> </p> Use the mouse to select 3 regions on the color wheel that you think people would be more likely to select when guessing. </p> <p>  </p><p> </p> It is fine to select nearby regions if needed.  </p>","0","","",NaN,NaN,NaN,NaN,NaN,NaN,NaN,NaN,NaN,NaN,NaN,NaN,"","","","",NaN,8
"","","","","","color-report-last-question",502,1219246,"0.0-14.0","610b75e4f4c98c21a7036828","62ffb23f2636bd43a6cd2f50","62ffc0cb7a32f63eef9e975c",141661987464,"","","[3]","[126]",126,90,311.855042535302,93.3664606634298,3.36646066342981,1100220,0,1,0,0,0,NaN,"","","","Q4colorReportOthers",NaN,8
"","","","","","html-button-response",503,1228770,"0.0-15.0","610b75e4f4c98c21a7036828","62ffb23f2636bd43a6cd2f50","62ffc0cb7a32f63eef9e975c",9522,"<p style=""font-size: 24px; "">This time, consider only your own experience, which may be the same or different from how others guess.  </p> <p>  </p><p> </p> Did you notice any patterns in the colors you chose when you were guessing? </p> <p>  </p><p> </p> Use the mouse to select 3 regions on the color wheel that you think you were more likely to select when guessing. </p> <p>  </p><p> </p> It is okay to select the same region, and it is okay if your answers are similar to the previous question. </p> <p>  </p><p> </p> <br> <br> <br>  </p>","0","","",NaN,NaN,NaN,NaN,NaN,NaN,NaN,NaN,NaN,NaN,NaN,NaN,"","","","",NaN,8
"","","","","","color-report-last-question",504,1234256,"0.0-16.0","610b75e4f4c98c21a7036828","62ffb23f2636bd43a6cd2f50","62ffc0cb7a32f63eef9e975c",2916454441,"","","[7]","[268]",268,90,274.195649691781,194.308818859306,104.308818859306,358102183,0,1,0,0,0,NaN,"","","","Q5colorReportSelf",NaN,8
"","","","","","continuous-colorCM7",498,1525933,"0.0-10.0-1.239-0.239","6294dc0a6c8540fc7756cbab","62ffb23f2636bd43a6cd2f50","62ffc1794c0dde2cec77a596",1840.30000001192,"","","[2,3,7]","[144,315,247]",144,88,256.886882089029,256.886882089029,168.886882089029,170,0,3,0,145.851000000024,150.525999964215,150,"[[[""img/mask68.png""],[""img/mask54.png""],[""img/mask75.png""]]]","","[2,3,7]","color",88,9
"","","","","","survey-text",499,1530889,"0.0-11.0","6294dc0a6c8540fc7756cbab","62ffb23f2636bd43a6cd2f50","62ffc1794c0dde2cec77a596",4951.39999997616,"","{""Q0"":""""}","","",NaN,NaN,NaN,NaN,NaN,NaN,NaN,NaN,NaN,NaN,NaN,NaN,"","","","",NaN,9
"","","","","","survey-text",500,1578025,"0.0-12.0","6294dc0a6c8540fc7756cbab","62ffb23f2636bd43a6cd2f50","62ffc1794c0dde2cec77a596",47130.8000000119,"","{""Q0"":""55%"",""Q1"":""I used the colors around the target to cross them off the list of possibilities""}","","",NaN,NaN,NaN,NaN,NaN,NaN,NaN,NaN,NaN,NaN,NaN,NaN,"","","","",NaN,9
"","","","","","html-button-response",501,1585819,"0.0-13.0","6294dc0a6c8540fc7756cbab","62ffb23f2636bd43a6cd2f50","62ffc1794c0dde2cec77a596",7789,"<p style=""font-size: 24px; "">When making guesses, people might guess some colors more than others. Which colors do you think people are most likely to guess?  </p> <p>  </p><p> </p> We are now going to show you the color wheel you used during the experiment. </p> <p>  </p><p> </p> Use the mouse to select 3 regions on the color wheel that you think people would be more likely to select when guessing. </p> <p>  </p><p> </p> It is fine to select nearby regions if needed.  </p>","0","","",NaN,NaN,NaN,NaN,NaN,NaN,NaN,NaN,NaN,NaN,NaN,NaN,"","","","",NaN,9
"","","","","","color-report-last-question",502,1591831,"0.0-14.0","6294dc0a6c8540fc7756cbab","62ffb23f2636bd43a6cd2f50","62ffc1794c0dde2cec77a596",1081.53297,"","","[6]","[206]",206,90,60.115713188578,101.35417631041,11.35417631041,9244328,0,1,0,0,0,NaN,"","","","Q4colorReportOthers",NaN,9
"","","","","","html-button-response",503,1596525,"0.0-15.0","6294dc0a6c8540fc7756cbab","62ffb23f2636bd43a6cd2f50","62ffc1794c0dde2cec77a596",4693,"<p style=""font-size: 24px; "">This time, consider only your own experience, which may be the same or different from how others guess.  </p> <p>  </p><p> </p> Did you notice any patterns in the colors you chose when you were guessing? </p> <p>  </p><p> </p> Use the mouse to select 3 regions on the color wheel that you think you were more likely to select when guessing. </p> <p>  </p><p> </p> It is okay to select the same region, and it is okay if your answers are similar to the previous question. </p> <p>  </p><p> </p> <br> <br> <br>  </p>","0","","",NaN,NaN,NaN,NaN,NaN,NaN,NaN,NaN,NaN,NaN,NaN,NaN,"","","","",NaN,9
"","","","","","color-report-last-question",504,1601842,"0.0-16.0","6294dc0a6c8540fc7756cbab","62ffb23f2636bd43a6cd2f50","62ffc1794c0dde2cec77a596",203.099999964237,"","","[0]","[207]",207,90,345.360087706864,50.4861564250043,320.486156425004,31917254,0,1,0,0,0,NaN,"","","","Q5colorReportSelf",NaN,9
