success,timeout,failed_images,failed_audio,failed_video,trial_type,trial_index,time_elapsed,internal_node_id,subject_id,study_id,session_id,rt,stimulus,response,position_of_items,colors_of_items,color_of_target,wheel_spin,response_angle,physical_response_angle,reported_color_angle,reported_color_discrete,which_test,set_size,wheel_num_options,actual_mask_duration,actual_stim_duration,CMDispTime,maskArray,maskRotation,item_positions,task,randomSpinAmount,subNo
"true","false","[]","[]","[]","preload",0,1578,"0.0-0.0","558943fafdf99b5ccd435cb3","62ffb23f2636bd43a6cd2f50","62ffbdeca750e67504589226",NaN,"","","","",NaN,NaN,NaN,NaN,NaN,NaN,NaN,NaN,NaN,NaN,NaN,NaN,"","","","",NaN,1
"true","","","","","fullscreen",1,7963,"0.0-1.0","558943fafdf99b5ccd435cb3","62ffb23f2636bd43a6cd2f50","62ffbdeca750e67504589226",NaN,"","","","",NaN,NaN,NaN,NaN,NaN,NaN,NaN,NaN,NaN,NaN,NaN,NaN,"","","","",NaN,1
"","","","","","html-keyboard-response",2,15544,"0.0-2.0","558943fafdf99b5ccd435cb3","62ffb23f2636bd43a6cd2f50","62ffbdeca750e67504589226",7580,"What a beautiful Friday to do some awesome science! </p> <p>  </p><p> </p>
    By completing this survey or questionnaire, you are consenting to be in this research study. </p>
    Your participation is voluntary and you can stop at any time.<p> [Press any key to continue] </p>","enter","","",NaN,NaN,NaN,NaN,NaN,NaN,NaN,NaN,NaN,NaN,NaN,NaN,"","","","",NaN,1
"","","","","","html-keyboard-response",3,25559,"0.0-3.0","558943fafdf99b5ccd435cb3","62ffb23f2636bd43a6cd2f50","62ffbdeca750e67504589226",NaN,"
    <div style='width: 1000px;'>
    <div style='float: center;'><img src='img/TaskInstructions1.png'></img>
    </div>
    ","null","","",NaN,NaN,NaN,NaN,NaN,NaN,NaN,NaN,NaN,NaN,NaN,NaN,"","","","",NaN,1
"","","","","","html-keyboard-response",4,43111,"0.0-4.0","558943fafdf99b5ccd435cb3","62ffb23f2636bd43a6cd2f50","62ffbdeca750e67504589226",17549,"
    <div style='width: 1000px;'>
    <div style='float: center;'><img src='img/TaskInstructions1.png'></img>
    </div>
    ","enter","","",NaN,NaN,NaN,NaN,NaN,NaN,NaN,NaN,NaN,NaN,NaN,NaN,"","","","",NaN,1
"","","","","","html-keyboard-response",5,53112,"0.0-5.0","558943fafdf99b5ccd435cb3","62ffb23f2636bd43a6cd2f50","62ffbdeca750e67504589226",NaN,"
    <div style='width: 1000px;'>
    <div style='float: center;'><img src='img/TaskInstructions2.png'></img>
    </div>
    ","null","","",NaN,NaN,NaN,NaN,NaN,NaN,NaN,NaN,NaN,NaN,NaN,NaN,"","","","",NaN,1
"","","","","","html-keyboard-response",6,68343,"0.0-6.0","558943fafdf99b5ccd435cb3","62ffb23f2636bd43a6cd2f50","62ffbdeca750e67504589226",15224,"
    <div style='width: 1000px;'>
    <div style='float: center;'><img src='img/TaskInstructions2.png'></img>
    </div>
    ","enter","","",NaN,NaN,NaN,NaN,NaN,NaN,NaN,NaN,NaN,NaN,NaN,NaN,"","","","",NaN,1
"","","","","","video-keyboard-response",7,92861,"0.0-7.0","558943fafdf99b5ccd435cb3","62ffb23f2636bd43a6cd2f50","62ffbdeca750e67504589226",24468,"[""video/TaskInstructions3.mp4""]","enter","","",NaN,NaN,NaN,NaN,NaN,NaN,NaN,NaN,NaN,NaN,NaN,NaN,"","","","",NaN,1
"","","","","","image-keyboard-response",8,103345,"0.0-8.0-0.0","558943fafdf99b5ccd435cb3","62ffb23f2636bd43a6cd2f50","62ffbdeca750e67504589226",10480,"img/training1.png","enter","","",NaN,NaN,NaN,NaN,NaN,NaN,NaN,NaN,NaN,NaN,NaN,NaN,"","","","",NaN,1
"","","","","","continuous-colorCM7",9,123690,"0.0-8.0-1.0-0.0","558943fafdf99b5ccd435cb3","62ffb23f2636bd43a6cd2f50","62ffbdeca750e67504589226",10873,"","","[6]","[169]",169,99,284.1921771115,284.1921771115,185.1921771115,185,0,1,0,594.604000000007,595.962,600,"[[[""img/mask10.png""]]]","","[6]","training",NaN,1
"","","","","","image-keyboard-response",10,139583,"0.0-8.0-0.1","558943fafdf99b5ccd435cb3","62ffb23f2636bd43a6cd2f50","62ffbdeca750e67504589226",15892,"img/training2.png","enter","","",NaN,NaN,NaN,NaN,NaN,NaN,NaN,NaN,NaN,NaN,NaN,NaN,"","","","",NaN,1
"","","","","","continuous-colorCM7",11,153914,"0.0-8.0-1.1-0.1","558943fafdf99b5ccd435cb3","62ffb23f2636bd43a6cd2f50","62ffbdeca750e67504589226",5114,"","","[3,7,1]","[50,353,251]",50,322,13.6663565013608,13.6663565013608,51.6663565013608,50,0,3,0,294.497999999992,299.844000000012,300,"[[[""img/mask56.png""],[""img/mask59.png""],[""img/mask87.png""]]]","","[3,7,1]","training",NaN,1
"","","","","","image-keyboard-response",12,160223,"0.0-8.0-0.2","558943fafdf99b5ccd435cb3","62ffb23f2636bd43a6cd2f50","62ffbdeca750e67504589226",6309,"img/training3.png","enter","","",NaN,NaN,NaN,NaN,NaN,NaN,NaN,NaN,NaN,NaN,NaN,NaN,"","","","",NaN,1
"","","","","","continuous-colorCM7",13,172121,"0.0-8.0-1.2-0.2","558943fafdf99b5ccd435cb3","62ffb23f2636bd43a6cd2f50","62ffbdeca750e67504589226",7022,"","","[6,7,2,1,4]","[124,335,71,247,94]",124,8,310.510826344598,310.510826344598,302.510826344598,302,0,5,0,294.84599999999,306.19200000001,300,"[[[""img/mask89.png""],[""img/mask12.png""],[""img/mask4.png""],[""img/mask25.png""],[""img/mask3.png""]]]","","[6,7,2,1,4]","training",NaN,1
"","","","","","image-keyboard-response",14,181447,"0.0-8.0-0.3","558943fafdf99b5ccd435cb3","62ffb23f2636bd43a6cd2f50","62ffbdeca750e67504589226",9325,"img/training4.png","enter","","",NaN,NaN,NaN,NaN,NaN,NaN,NaN,NaN,NaN,NaN,NaN,NaN,"","","","",NaN,1
"","","","","","continuous-colorCM7",15,188602,"0.0-8.0-1.3-0.3","558943fafdf99b5ccd435cb3","62ffb23f2636bd43a6cd2f50","62ffbdeca750e67504589226",4003,"","","[6,1,3]","[227,336,24]",227,23,325.099397083542,325.099397083542,302.099397083542,302,0,3,0,143.065999999992,142.405999999988,150,"[[[""img/mask69.png""],[""img/mask100.png""],[""img/mask88.png""]]]","","[6,1,3]","training",NaN,1
"","","","","","image-keyboard-response",16,195311,"0.0-8.0-0.4","558943fafdf99b5ccd435cb3","62ffb23f2636bd43a6cd2f50","62ffbdeca750e67504589226",6709,"img/training5.png","enter","","",NaN,NaN,NaN,NaN,NaN,NaN,NaN,NaN,NaN,NaN,NaN,NaN,"","","","",NaN,1
"","","","","","continuous-colorCM7",17,201858,"0.0-8.0-1.4-0.4","558943fafdf99b5ccd435cb3","62ffb23f2636bd43a6cd2f50","62ffbdeca750e67504589226",2943,"","","[5,1,2,3,6]","[175,108,142,306,64]",175,208,50.7767860903255,50.7767860903255,202.776786090325,200,0,5,0,143.160000000003,13.5,16,"[[[""img/mask23.png""],[""img/mask73.png""],[""img/mask13.png""],[""img/mask74.png""],[""img/mask56.png""]]]","","[5,1,2,3,6]","training",NaN,1
"","","","","","image-keyboard-response",18,204863,"0.0-9.0","558943fafdf99b5ccd435cb3","62ffb23f2636bd43a6cd2f50","62ffbdeca750e67504589226",3004,"[""img/endTraining.png""]","enter","","",NaN,NaN,NaN,NaN,NaN,NaN,NaN,NaN,NaN,NaN,NaN,NaN,"","","","",NaN,1
"","","","","","html-keyboard-response",19,205367,"0.0-10.0-0.0","558943fafdf99b5ccd435cb3","62ffb23f2636bd43a6cd2f50","62ffbdeca750e67504589226",NaN,"","null","","",NaN,NaN,NaN,NaN,NaN,NaN,NaN,NaN,NaN,NaN,NaN,NaN,"","","","fixation",NaN,1
"","","","","","continuous-colorCM7",20,213433,"0.0-10.0-1.0-0.0","558943fafdf99b5ccd435cb3","62ffb23f2636bd43a6cd2f50","62ffbdeca750e67504589226",4952,"","","[4,0,6,1,5]","[98,279,18,232,325]",98,251,351.15460897298,351.15460897298,100.15460897298,99,0,5,0,154.443999999989,0,0,"[[[""img/mask70.png""],[""img/mask44.png""],[""img/mask8.png""],[""img/mask74.png""],[""img/mask26.png""]]]","","[4,0,6,1,5]","color",251,1
"","","","","","html-keyboard-response",21,213934,"0.0-10.0-0.1","558943fafdf99b5ccd435cb3","62ffb23f2636bd43a6cd2f50","62ffbdeca750e67504589226",NaN,"","null","","",NaN,NaN,NaN,NaN,NaN,NaN,NaN,NaN,NaN,NaN,NaN,NaN,"","","","fixation",NaN,1
"","","","","","continuous-colorCM7",22,223674,"0.0-10.0-1.1-0.1","558943fafdf99b5ccd435cb3","62ffb23f2636bd43a6cd2f50","62ffbdeca750e67504589226",6525,"","","[6]","[241]",241,155,22.7516794780556,22.7516794780556,227.751679478056,225,0,1,0,144.763999999996,156.103999999992,150,"[[[""img/mask96.png""]]]","","[6]","color",155,1
"","","","","","html-keyboard-response",23,224182,"0.0-10.0-0.2","558943fafdf99b5ccd435cb3","62ffb23f2636bd43a6cd2f50","62ffbdeca750e67504589226",NaN,"","null","","",NaN,NaN,NaN,NaN,NaN,NaN,NaN,NaN,NaN,NaN,NaN,NaN,"","","","fixation",NaN,1
"","","","","","continuous-colorCM7",24,230609,"0.0-10.0-1.2-0.2","558943fafdf99b5ccd435cb3","62ffb23f2636bd43a6cd2f50","62ffbdeca750e67504589226",2180,"","","[3,2,5,0,1]","[175,52,258,19,345]",175,130,119.854769134535,119.854769134535,349.854769134535,346,0,5,0,144.646000000008,8.98600000000442,16,"[[[""img/mask41.png""],[""img/mask35.png""],[""img/mask3.png""],[""img/mask57.png""],[""img/mask79.png""]]]","","[3,2,5,0,1]","color",130,1
"","","","","","html-keyboard-response",25,231116,"0.0-10.0-0.3","558943fafdf99b5ccd435cb3","62ffb23f2636bd43a6cd2f50","62ffbdeca750e67504589226",NaN,"","null","","",NaN,NaN,NaN,NaN,NaN,NaN,NaN,NaN,NaN,NaN,NaN,NaN,"","","","fixation",NaN,1
"","","","","","continuous-colorCM7",26,238474,"0.0-10.0-1.3-0.3","558943fafdf99b5ccd435cb3","62ffb23f2636bd43a6cd2f50","62ffbdeca750e67504589226",4043,"","","[6,0,3,7,2]","[198,167,117,314,46]",198,179,216.637405804597,216.637405804597,37.6374058045967,37,0,5,0,143.405999999988,12.7460000000137,16,"[[[""img/mask27.png""],[""img/mask83.png""],[""img/mask9.png""],[""img/mask99.png""],[""img/mask5.png""]]]","","[6,0,3,7,2]","color",179,1
"","","","","","html-keyboard-response",27,238976,"0.0-10.0-0.4","558943fafdf99b5ccd435cb3","62ffb23f2636bd43a6cd2f50","62ffbdeca750e67504589226",NaN,"","null","","",NaN,NaN,NaN,NaN,NaN,NaN,NaN,NaN,NaN,NaN,NaN,NaN,"","","","fixation",NaN,1
"","","","","","continuous-colorCM7",28,244802,"0.0-10.0-1.4-0.4","558943fafdf99b5ccd435cb3","62ffb23f2636bd43a6cd2f50","62ffbdeca750e67504589226",2772,"","","[0]","[162]",162,95,287.845903984988,287.845903984988,192.845903984988,193,0,1,0,144.102000000014,75.44200000001,83,"[[[""img/mask35.png""]]]","","[0]","color",95,1
"","","","","","html-keyboard-response",29,245304,"0.0-10.0-0.5","558943fafdf99b5ccd435cb3","62ffb23f2636bd43a6cd2f50","62ffbdeca750e67504589226",NaN,"","null","","",NaN,NaN,NaN,NaN,NaN,NaN,NaN,NaN,NaN,NaN,NaN,NaN,"","","","fixation",NaN,1
"","","","","","continuous-colorCM7",30,251842,"0.0-10.0-1.5-0.5","558943fafdf99b5ccd435cb3","62ffb23f2636bd43a6cd2f50","62ffbdeca750e67504589226",3163,"","","[1]","[107]",107,196,175.399258135244,175.399258135244,339.399258135244,338,0,1,0,144.83600000001,9.17600000000675,16,"[[[""img/mask25.png""]]]","","[1]","color",196,1
"","","","","","html-keyboard-response",31,252345,"0.0-10.0-0.6","558943fafdf99b5ccd435cb3","62ffb23f2636bd43a6cd2f50","62ffbdeca750e67504589226",NaN,"","null","","",NaN,NaN,NaN,NaN,NaN,NaN,NaN,NaN,NaN,NaN,NaN,NaN,"","","","fixation",NaN,1
"","","","","","continuous-colorCM7",32,259122,"0.0-10.0-1.6-0.6","558943fafdf99b5ccd435cb3","62ffb23f2636bd43a6cd2f50","62ffbdeca750e67504589226",3427,"","","[0,2,5]","[73,291,341]",73,110,39.6116006389619,39.6116006389619,289.611600638962,287,0,3,0,144.222000000009,88.5620000000054,83,"[[[""img/mask80.png""],[""img/mask18.png""],[""img/mask42.png""]]]","","[0,2,5]","color",110,1
"","","","","","html-keyboard-response",33,259626,"0.0-10.0-0.7","558943fafdf99b5ccd435cb3","62ffb23f2636bd43a6cd2f50","62ffbdeca750e67504589226",NaN,"","null","","",NaN,NaN,NaN,NaN,NaN,NaN,NaN,NaN,NaN,NaN,NaN,NaN,"","","","fixation",NaN,1
"","","","","","continuous-colorCM7",34,265746,"0.0-10.0-1.7-0.7","558943fafdf99b5ccd435cb3","62ffb23f2636bd43a6cd2f50","62ffbdeca750e67504589226",2551,"","","[0]","[10]",10,244,259.314362903999,259.314362903999,15.3143629039993,16,0,1,0,144.92200000002,143.261999999988,150,"[[[""img/mask56.png""]]]","","[0]","color",244,1
"","","","","","html-keyboard-response",35,266259,"0.0-10.0-0.8","558943fafdf99b5ccd435cb3","62ffb23f2636bd43a6cd2f50","62ffbdeca750e67504589226",NaN,"","null","","",NaN,NaN,NaN,NaN,NaN,NaN,NaN,NaN,NaN,NaN,NaN,NaN,"","","","fixation",NaN,1
"","","","","","continuous-colorCM7",36,271938,"0.0-10.0-1.8-0.8","558943fafdf99b5ccd435cb3","62ffb23f2636bd43a6cd2f50","62ffbdeca750e67504589226",2143,"","","[0]","[319]",319,276,300.070785808816,300.070785808816,24.070785808816,25,0,1,0,144.657999999996,81.9980000000214,83,"[[[""img/mask40.png""]]]","","[0]","color",276,1
"","","","","","html-keyboard-response",37,272442,"0.0-10.0-0.9","558943fafdf99b5ccd435cb3","62ffb23f2636bd43a6cd2f50","62ffbdeca750e67504589226",NaN,"","null","","",NaN,NaN,NaN,NaN,NaN,NaN,NaN,NaN,NaN,NaN,NaN,NaN,"","","","fixation",NaN,1
"","","","","","continuous-colorCM7",38,283154,"0.0-10.0-1.9-0.9","558943fafdf99b5ccd435cb3","62ffb23f2636bd43a6cd2f50","62ffbdeca750e67504589226",2610,"","","[2,1,3,6,0]","[69,199,304,109,130]",69,331,151.075281215018,151.075281215018,180.075281215018,178,0,5,0,143.228000000003,152.568000000028,150,"[[[""img/mask34.png""],[""img/mask99.png""],[""img/mask26.png""],[""img/mask15.png""],[""img/mask58.png""]]]","","[2,1,3,6,0]","color",331,1
"","","","","","html-keyboard-response",39,283660,"0.0-10.0-0.10","558943fafdf99b5ccd435cb3","62ffb23f2636bd43a6cd2f50","62ffbdeca750e67504589226",NaN,"","null","","",NaN,NaN,NaN,NaN,NaN,NaN,NaN,NaN,NaN,NaN,NaN,NaN,"","","","fixation",NaN,1
"","","","","","continuous-colorCM7",40,288842,"0.0-10.0-1.10-0.10","558943fafdf99b5ccd435cb3","62ffb23f2636bd43a6cd2f50","62ffbdeca750e67504589226",1881,"","","[2]","[8]",8,78,280.506830888138,280.506830888138,202.506830888138,202,0,1,0,144.637999999977,8.97800000000279,16,"[[[""img/mask30.png""]]]","","[2]","color",78,1
"","","","","","html-keyboard-response",41,289358,"0.0-10.0-0.11","558943fafdf99b5ccd435cb3","62ffb23f2636bd43a6cd2f50","62ffbdeca750e67504589226",NaN,"","null","","",NaN,NaN,NaN,NaN,NaN,NaN,NaN,NaN,NaN,NaN,NaN,NaN,"","","","fixation",NaN,1
"","","","","","continuous-colorCM7",42,295314,"0.0-10.0-1.11-0.11","558943fafdf99b5ccd435cb3","62ffb23f2636bd43a6cd2f50","62ffbdeca750e67504589226",2337,"","","[1,0,2]","[177,90,53]",177,16,194.009785366189,194.009785366189,178.009785366189,177,0,3,0,144.064000000013,81.4039999999804,83,"[[[""img/mask46.png""],[""img/mask63.png""],[""img/mask37.png""]]]","","[1,0,2]","color",16,1
"","","","","","html-keyboard-response",43,295826,"0.0-10.0-0.12","558943fafdf99b5ccd435cb3","62ffb23f2636bd43a6cd2f50","62ffbdeca750e67504589226",NaN,"","null","","",NaN,NaN,NaN,NaN,NaN,NaN,NaN,NaN,NaN,NaN,NaN,NaN,"","","","fixation",NaN,1
"","","","","","continuous-colorCM7",44,302387,"0.0-10.0-1.12-0.12","558943fafdf99b5ccd435cb3","62ffb23f2636bd43a6cd2f50","62ffbdeca750e67504589226",2809,"","","[4,3,0]","[115,351,159]",115,92,32.321843829172,32.321843829172,300.321843829172,298,0,3,0,143.799999999988,8.14000000001397,16,"[[[""img/mask83.png""],[""img/mask87.png""],[""img/mask3.png""]]]","","[4,3,0]","color",92,1
"","","","","","html-keyboard-response",45,302899,"0.0-10.0-0.13","558943fafdf99b5ccd435cb3","62ffb23f2636bd43a6cd2f50","62ffbdeca750e67504589226",NaN,"","null","","",NaN,NaN,NaN,NaN,NaN,NaN,NaN,NaN,NaN,NaN,NaN,NaN,"","","","fixation",NaN,1
"","","","","","continuous-colorCM7",46,308962,"0.0-10.0-1.13-0.13","558943fafdf99b5ccd435cb3","62ffb23f2636bd43a6cd2f50","62ffbdeca750e67504589226",3135,"","","[7]","[241]",241,288,191.776351561378,191.776351561378,263.776351561378,262,0,1,0,144.549999999988,12.890000000014,16,"[[[""img/mask14.png""]]]","","[7]","color",288,1
"","","","","","html-keyboard-response",47,309467,"0.0-10.0-0.14","558943fafdf99b5ccd435cb3","62ffb23f2636bd43a6cd2f50","62ffbdeca750e67504589226",NaN,"","null","","",NaN,NaN,NaN,NaN,NaN,NaN,NaN,NaN,NaN,NaN,NaN,NaN,"","","","fixation",NaN,1
"","","","","","continuous-colorCM7",48,315890,"0.0-10.0-1.14-0.14","558943fafdf99b5ccd435cb3","62ffb23f2636bd43a6cd2f50","62ffbdeca750e67504589226",3147,"","","[5,0,4]","[281,66,106]",281,336,282.355726209379,282.355726209379,306.355726209379,307,0,3,0,151.940000000002,0,0,"[[[""img/mask10.png""],[""img/mask2.png""],[""img/mask13.png""]]]","","[5,0,4]","color",336,1
"","","","","","html-keyboard-response",49,316393,"0.0-10.0-0.15","558943fafdf99b5ccd435cb3","62ffb23f2636bd43a6cd2f50","62ffbdeca750e67504589226",NaN,"","null","","",NaN,NaN,NaN,NaN,NaN,NaN,NaN,NaN,NaN,NaN,NaN,NaN,"","","","fixation",NaN,1
"","","","","","continuous-colorCM7",50,323506,"0.0-10.0-1.15-0.15","558943fafdf99b5ccd435cb3","62ffb23f2636bd43a6cd2f50","62ffbdeca750e67504589226",1713,"","","[3]","[234]",234,108,129.706959708379,129.706959708379,21.7069597083791,19,0,1,0,144.57799999998,88.9180000000051,83,"[[[""img/mask31.png""]]]","","[3]","color",108,1
"","","","","","html-keyboard-response",51,324015,"0.0-10.0-0.16","558943fafdf99b5ccd435cb3","62ffb23f2636bd43a6cd2f50","62ffbdeca750e67504589226",NaN,"","null","","",NaN,NaN,NaN,NaN,NaN,NaN,NaN,NaN,NaN,NaN,NaN,NaN,"","","","fixation",NaN,1
"","","","","","continuous-colorCM7",52,334162,"0.0-10.0-1.16-0.16","558943fafdf99b5ccd435cb3","62ffb23f2636bd43a6cd2f50","62ffbdeca750e67504589226",5653,"","","[2,6,3]","[218,109,74]",218,231,102.898319789965,102.898319789965,231.898319789965,228,0,3,0,144.976000000024,155.315999999992,150,"[[[""img/mask89.png""],[""img/mask2.png""],[""img/mask60.png""]]]","","[2,6,3]","color",231,1
"","","","","","html-keyboard-response",53,334669,"0.0-10.0-0.17","558943fafdf99b5ccd435cb3","62ffb23f2636bd43a6cd2f50","62ffbdeca750e67504589226",NaN,"","null","","",NaN,NaN,NaN,NaN,NaN,NaN,NaN,NaN,NaN,NaN,NaN,NaN,"","","","fixation",NaN,1
"","","","","","continuous-colorCM7",54,340754,"0.0-10.0-1.17-0.17","558943fafdf99b5ccd435cb3","62ffb23f2636bd43a6cd2f50","62ffbdeca750e67504589226",2879,"","","[4,0,3,7,5]","[329,280,97,204,302]",329,300,309.793200779803,309.793200779803,9.79320077980282,10,0,5,0,156.267999999982,0,0,"[[[""img/mask95.png""],[""img/mask47.png""],[""img/mask18.png""],[""img/mask100.png""],[""img/mask86.png""]]]","","[4,0,3,7,5]","color",300,1
"","","","","","html-keyboard-response",55,341257,"0.0-10.0-0.18","558943fafdf99b5ccd435cb3","62ffb23f2636bd43a6cd2f50","62ffbdeca750e67504589226",NaN,"","null","","",NaN,NaN,NaN,NaN,NaN,NaN,NaN,NaN,NaN,NaN,NaN,NaN,"","","","fixation",NaN,1
"","","","","","continuous-colorCM7",56,348274,"0.0-10.0-1.18-0.18","558943fafdf99b5ccd435cb3","62ffb23f2636bd43a6cd2f50","62ffbdeca750e67504589226",3699,"","","[1,4,6,5,2]","[276,179,229,101,359]",276,268,243.003835610342,243.003835610342,335.003835610342,336,0,5,0,144,21.3400000000256,16,"[[[""img/mask80.png""],[""img/mask50.png""],[""img/mask48.png""],[""img/mask14.png""],[""img/mask41.png""]]]","","[1,4,6,5,2]","color",268,1
"","","","","","html-keyboard-response",57,352753,"0.0-10.0-0.19","558943fafdf99b5ccd435cb3","62ffb23f2636bd43a6cd2f50","62ffbdeca750e67504589226",4465,"Wow! You've completed 20 out of 240 trials! </p> <p>  </p><p> Take a quick break, then press any key when you're ready to continue.","enter","","",NaN,NaN,NaN,NaN,NaN,NaN,NaN,NaN,NaN,NaN,NaN,NaN,"","","","fixation",NaN,1
"","","","","","continuous-colorCM7",58,358325,"0.0-10.0-1.19-0.19","558943fafdf99b5ccd435cb3","62ffb23f2636bd43a6cd2f50","62ffbdeca750e67504589226",2449,"","","[1]","[161]",161,199,21.675115310383,21.675115310383,182.675115310383,180,0,1,0,156.54800000001,0,0,"[[[""img/mask5.png""]]]","","[1]","color",199,1
"","","","","","html-keyboard-response",59,358836,"0.0-10.0-0.20","558943fafdf99b5ccd435cb3","62ffb23f2636bd43a6cd2f50","62ffbdeca750e67504589226",NaN,"","null","","",NaN,NaN,NaN,NaN,NaN,NaN,NaN,NaN,NaN,NaN,NaN,NaN,"","","","fixation",NaN,1
"","","","","","continuous-colorCM7",60,363474,"0.0-10.0-1.20-0.20","558943fafdf99b5ccd435cb3","62ffb23f2636bd43a6cd2f50","62ffbdeca750e67504589226",2101,"","","[4]","[21]",21,218,231.262941813156,231.262941813156,13.2629418131557,13,0,1,0,144.32799999998,155.668000000005,150,"[[[""img/mask67.png""]]]","","[4]","color",218,1
"","","","","","html-keyboard-response",61,363974,"0.0-10.0-0.21","558943fafdf99b5ccd435cb3","62ffb23f2636bd43a6cd2f50","62ffbdeca750e67504589226",NaN,"","null","","",NaN,NaN,NaN,NaN,NaN,NaN,NaN,NaN,NaN,NaN,NaN,NaN,"","","","fixation",NaN,1
"","","","","","continuous-colorCM7",62,368569,"0.0-10.0-1.21-0.21","558943fafdf99b5ccd435cb3","62ffb23f2636bd43a6cd2f50","62ffbdeca750e67504589226",1563,"","","[7]","[9]",9,159,165.668824204054,165.668824204054,6.66882420405406,4,0,1,0,144.435999999987,88.7760000000126,83,"[[[""img/mask6.png""]]]","","[7]","color",159,1
"","","","","","html-keyboard-response",63,369072,"0.0-10.0-0.22","558943fafdf99b5ccd435cb3","62ffb23f2636bd43a6cd2f50","62ffbdeca750e67504589226",NaN,"","null","","",NaN,NaN,NaN,NaN,NaN,NaN,NaN,NaN,NaN,NaN,NaN,NaN,"","","","fixation",NaN,1
"","","","","","continuous-colorCM7",64,373505,"0.0-10.0-1.22-0.22","558943fafdf99b5ccd435cb3","62ffb23f2636bd43a6cd2f50","62ffbdeca750e67504589226",1932,"","","[3,7,1]","[302,27,76]",302,56,346.841050927399,346.841050927399,290.841050927399,290,0,3,0,144.919999999984,90.2600000000093,83,"[[[""img/mask85.png""],[""img/mask30.png""],[""img/mask87.png""]]]","","[3,7,1]","color",56,1
"","","","","","html-keyboard-response",65,374021,"0.0-10.0-0.23","558943fafdf99b5ccd435cb3","62ffb23f2636bd43a6cd2f50","62ffbdeca750e67504589226",NaN,"","null","","",NaN,NaN,NaN,NaN,NaN,NaN,NaN,NaN,NaN,NaN,NaN,NaN,"","","","fixation",NaN,1
"","","","","","continuous-colorCM7",66,379177,"0.0-10.0-1.23-0.23","558943fafdf99b5ccd435cb3","62ffb23f2636bd43a6cd2f50","62ffbdeca750e67504589226",1517,"","","[7]","[286]",286,282,105.143677885033,105.143677885033,183.143677885033,180,0,1,0,142.010000000009,8.34999999997672,16,"[[[""img/mask40.png""]]]","","[7]","color",282,1
"","","","","","html-keyboard-response",67,379677,"0.0-10.0-0.24","558943fafdf99b5ccd435cb3","62ffb23f2636bd43a6cd2f50","62ffbdeca750e67504589226",NaN,"","null","","",NaN,NaN,NaN,NaN,NaN,NaN,NaN,NaN,NaN,NaN,NaN,NaN,"","","","fixation",NaN,1
"","","","","","continuous-colorCM7",68,384113,"0.0-10.0-1.24-0.24","558943fafdf99b5ccd435cb3","62ffb23f2636bd43a6cd2f50","62ffbdeca750e67504589226",2024,"","","[2]","[142]",142,358,230.456921927513,230.456921927513,232.456921927513,232,0,1,0,144.166000000027,20.5059999999939,16,"[[[""img/mask31.png""]]]","","[2]","color",358,1
"","","","","","html-keyboard-response",69,384614,"0.0-10.0-0.25","558943fafdf99b5ccd435cb3","62ffb23f2636bd43a6cd2f50","62ffbdeca750e67504589226",NaN,"","null","","",NaN,NaN,NaN,NaN,NaN,NaN,NaN,NaN,NaN,NaN,NaN,NaN,"","","","fixation",NaN,1
"","","","","","continuous-colorCM7",70,389410,"0.0-10.0-1.25-0.25","558943fafdf99b5ccd435cb3","62ffb23f2636bd43a6cd2f50","62ffbdeca750e67504589226",2321,"","","[1,0,7,3,2]","[227,68,317,15,160]",227,181,40.9009867081546,40.9009867081546,219.900986708155,217,0,5,0,144.966000000015,158.305999999982,150,"[[[""img/mask81.png""],[""img/mask31.png""],[""img/mask6.png""],[""img/mask16.png""],[""img/mask7.png""]]]","","[1,0,7,3,2]","color",181,1
"","","","","","html-keyboard-response",71,389910,"0.0-10.0-0.26","558943fafdf99b5ccd435cb3","62ffb23f2636bd43a6cd2f50","62ffbdeca750e67504589226",NaN,"","null","","",NaN,NaN,NaN,NaN,NaN,NaN,NaN,NaN,NaN,NaN,NaN,NaN,"","","","fixation",NaN,1
"","","","","","continuous-colorCM7",72,395961,"0.0-10.0-1.26-0.26","558943fafdf99b5ccd435cb3","62ffb23f2636bd43a6cd2f50","62ffbdeca750e67504589226",3522,"","","[2,0,6,7,3]","[25,190,327,249,350]",25,191,237.582329885032,237.582329885032,46.5823298850316,46,0,5,0,143.751999999979,80.0920000000042,83,"[[[""img/mask94.png""],[""img/mask61.png""],[""img/mask21.png""],[""img/mask92.png""],[""img/mask61.png""]]]","","[2,0,6,7,3]","color",191,1
"","","","","","html-keyboard-response",73,396461,"0.0-10.0-0.27","558943fafdf99b5ccd435cb3","62ffb23f2636bd43a6cd2f50","62ffbdeca750e67504589226",NaN,"","null","","",NaN,NaN,NaN,NaN,NaN,NaN,NaN,NaN,NaN,NaN,NaN,NaN,"","","","fixation",NaN,1
"","","","","","continuous-colorCM7",74,402577,"0.0-10.0-1.27-0.27","558943fafdf99b5ccd435cb3","62ffb23f2636bd43a6cd2f50","62ffbdeca750e67504589226",2488,"","","[4,7,5,1,3]","[27,224,128,190,97]",27,236,262.310310039507,262.310310039507,26.3103100395065,27,0,5,0,144.445999999996,17.7860000000219,16,"[[[""img/mask83.png""],[""img/mask7.png""],[""img/mask81.png""],[""img/mask60.png""],[""img/mask66.png""]]]","","[4,7,5,1,3]","color",236,1
"","","","","","html-keyboard-response",75,403078,"0.0-10.0-0.28","558943fafdf99b5ccd435cb3","62ffb23f2636bd43a6cd2f50","62ffbdeca750e67504589226",NaN,"","null","","",NaN,NaN,NaN,NaN,NaN,NaN,NaN,NaN,NaN,NaN,NaN,NaN,"","","","fixation",NaN,1
"","","","","","continuous-colorCM7",76,406913,"0.0-10.0-1.28-0.28","558943fafdf99b5ccd435cb3","62ffb23f2636bd43a6cd2f50","62ffbdeca750e67504589226",1625,"","","[2,1,6,5,7]","[327,231,358,119,67]",327,109,334.867873308948,334.867873308948,225.867873308948,226,0,5,0,143.238000000012,0,0,"[[[""img/mask81.png""],[""img/mask87.png""],[""img/mask8.png""],[""img/mask50.png""],[""img/mask74.png""]]]","","[2,1,6,5,7]","color",109,1
"","","","","","html-keyboard-response",77,407414,"0.0-10.0-0.29","558943fafdf99b5ccd435cb3","62ffb23f2636bd43a6cd2f50","62ffbdeca750e67504589226",NaN,"","null","","",NaN,NaN,NaN,NaN,NaN,NaN,NaN,NaN,NaN,NaN,NaN,NaN,"","","","fixation",NaN,1
"","","","","","continuous-colorCM7",78,414193,"0.0-10.0-1.29-0.29","558943fafdf99b5ccd435cb3","62ffb23f2636bd43a6cd2f50","62ffbdeca750e67504589226",3738,"","","[3,4,2]","[114,42,227]",114,312,97.0092354057481,97.0092354057481,145.009235405748,141,0,3,0,151.697999999975,0,0,"[[[""img/mask78.png""],[""img/mask56.png""],[""img/mask42.png""]]]","","[3,4,2]","color",312,1
"","","","","","html-keyboard-response",79,414697,"0.0-10.0-0.30","558943fafdf99b5ccd435cb3","62ffb23f2636bd43a6cd2f50","62ffbdeca750e67504589226",NaN,"","null","","",NaN,NaN,NaN,NaN,NaN,NaN,NaN,NaN,NaN,NaN,NaN,NaN,"","","","fixation",NaN,1
"","","","","","continuous-colorCM7",80,421434,"0.0-10.0-1.30-0.30","558943fafdf99b5ccd435cb3","62ffb23f2636bd43a6cd2f50","62ffbdeca750e67504589226",3961,"","","[3,4,1]","[254,86,303]",254,278,130.097127200663,130.097127200663,212.097127200663,209,0,3,0,143.083999999973,155.423999999999,150,"[[[""img/mask3.png""],[""img/mask65.png""],[""img/mask78.png""]]]","","[3,4,1]","color",278,1
"","","","","","html-keyboard-response",81,421935,"0.0-10.0-0.31","558943fafdf99b5ccd435cb3","62ffb23f2636bd43a6cd2f50","62ffbdeca750e67504589226",NaN,"","null","","",NaN,NaN,NaN,NaN,NaN,NaN,NaN,NaN,NaN,NaN,NaN,NaN,"","","","fixation",NaN,1
"","","","","","continuous-colorCM7",82,428802,"0.0-10.0-1.31-0.31","558943fafdf99b5ccd435cb3","62ffb23f2636bd43a6cd2f50","62ffbdeca750e67504589226",2746,"","","[2,0,1]","[259,76,230]",259,57,315.113313500184,315.113313500184,258.113313500184,259,0,3,0,144.074000000022,157.41399999999,150,"[[[""img/mask97.png""],[""img/mask83.png""],[""img/mask15.png""]]]","","[2,0,1]","color",57,1
"","","","","","html-keyboard-response",83,429315,"0.0-10.0-0.32","558943fafdf99b5ccd435cb3","62ffb23f2636bd43a6cd2f50","62ffbdeca750e67504589226",NaN,"","null","","",NaN,NaN,NaN,NaN,NaN,NaN,NaN,NaN,NaN,NaN,NaN,NaN,"","","","fixation",NaN,1
"","","","","","continuous-colorCM7",84,435298,"0.0-10.0-1.32-0.32","558943fafdf99b5ccd435cb3","62ffb23f2636bd43a6cd2f50","62ffbdeca750e67504589226",3075,"","","[7,4,5,1,2]","[242,187,94,305,138]",242,130,103.086402034146,103.086402034146,333.086402034146,331,0,5,0,144.494000000006,78.8339999999735,83,"[[[""img/mask19.png""],[""img/mask33.png""],[""img/mask56.png""],[""img/mask95.png""],[""img/mask16.png""]]]","","[7,4,5,1,2]","color",130,1
"","","","","","html-keyboard-response",85,435812,"0.0-10.0-0.33","558943fafdf99b5ccd435cb3","62ffb23f2636bd43a6cd2f50","62ffbdeca750e67504589226",NaN,"","null","","",NaN,NaN,NaN,NaN,NaN,NaN,NaN,NaN,NaN,NaN,NaN,NaN,"","","","fixation",NaN,1
"","","","","","continuous-colorCM7",86,442131,"0.0-10.0-1.33-0.33","558943fafdf99b5ccd435cb3","62ffb23f2636bd43a6cd2f50","62ffbdeca750e67504589226",3424,"","","[0,3,6]","[49,252,22]",49,75,25.854872205553,25.854872205553,310.854872205553,308,0,3,0,143.568000000028,0,0,"[[[""img/mask35.png""],[""img/mask84.png""],[""img/mask20.png""]]]","","[0,3,6]","color",75,1
"","","","","","html-keyboard-response",87,442632,"0.0-10.0-0.34","558943fafdf99b5ccd435cb3","62ffb23f2636bd43a6cd2f50","62ffbdeca750e67504589226",NaN,"","null","","",NaN,NaN,NaN,NaN,NaN,NaN,NaN,NaN,NaN,NaN,NaN,NaN,"","","","fixation",NaN,1
"","","","","","continuous-colorCM7",88,447562,"0.0-10.0-1.34-0.34","558943fafdf99b5ccd435cb3","62ffb23f2636bd43a6cd2f50","62ffbdeca750e67504589226",2473,"","","[3,0,7,6,4]","[288,352,258,184,93]",288,171,322.885438800052,322.885438800052,151.885438800052,151,0,5,0,144.646000000008,0,0,"[[[""img/mask61.png""],[""img/mask56.png""],[""img/mask60.png""],[""img/mask96.png""],[""img/mask23.png""]]]","","[3,0,7,6,4]","color",171,1
"","","","","","html-keyboard-response",89,448062,"0.0-10.0-0.35","558943fafdf99b5ccd435cb3","62ffb23f2636bd43a6cd2f50","62ffbdeca750e67504589226",NaN,"","null","","",NaN,NaN,NaN,NaN,NaN,NaN,NaN,NaN,NaN,NaN,NaN,NaN,"","","","fixation",NaN,1
"","","","","","continuous-colorCM7",90,454626,"0.0-10.0-1.35-0.35","558943fafdf99b5ccd435cb3","62ffb23f2636bd43a6cd2f50","62ffbdeca750e67504589226",3404,"","","[0,6,5]","[150,58,89]",150,177,73.4833059448201,73.4833059448201,256.48330594482,253,0,3,0,143.733999999997,89.0740000000224,83,"[[[""img/mask70.png""],[""img/mask66.png""],[""img/mask31.png""]]]","","[0,6,5]","color",177,1
"","","","","","html-keyboard-response",91,455127,"0.0-10.0-0.36","558943fafdf99b5ccd435cb3","62ffb23f2636bd43a6cd2f50","62ffbdeca750e67504589226",NaN,"","null","","",NaN,NaN,NaN,NaN,NaN,NaN,NaN,NaN,NaN,NaN,NaN,NaN,"","","","fixation",NaN,1
"","","","","","continuous-colorCM7",92,460330,"0.0-10.0-1.36-0.36","558943fafdf99b5ccd435cb3","62ffb23f2636bd43a6cd2f50","62ffbdeca750e67504589226",2509,"","","[4,1,2]","[214,181,40]",214,353,320.346861132674,320.346861132674,327.346861132674,327,0,3,0,144.469999999972,157.809999999998,150,"[[[""img/mask54.png""],[""img/mask34.png""],[""img/mask34.png""]]]","","[4,1,2]","color",353,1
"","","","","","html-keyboard-response",93,460834,"0.0-10.0-0.37","558943fafdf99b5ccd435cb3","62ffb23f2636bd43a6cd2f50","62ffbdeca750e67504589226",NaN,"","null","","",NaN,NaN,NaN,NaN,NaN,NaN,NaN,NaN,NaN,NaN,NaN,NaN,"","","","fixation",NaN,1
"","","","","","continuous-colorCM7",94,466474,"0.0-10.0-1.37-0.37","558943fafdf99b5ccd435cb3","62ffb23f2636bd43a6cd2f50","62ffbdeca750e67504589226",3120,"","","[4]","[11]",11,191,200.451264044577,200.451264044577,9.45126404457721,10,0,1,0,144.581999999995,10.9220000000205,16,"[[[""img/mask73.png""]]]","","[4]","color",191,1
"","","","","","html-keyboard-response",95,466975,"0.0-10.0-0.38","558943fafdf99b5ccd435cb3","62ffb23f2636bd43a6cd2f50","62ffbdeca750e67504589226",NaN,"","null","","",NaN,NaN,NaN,NaN,NaN,NaN,NaN,NaN,NaN,NaN,NaN,NaN,"","","","fixation",NaN,1
"","","","","","continuous-colorCM7",96,473858,"0.0-10.0-1.38-0.38","558943fafdf99b5ccd435cb3","62ffb23f2636bd43a6cd2f50","62ffbdeca750e67504589226",2254,"","","[1,2,5]","[61,151,249]",61,86,3.14774029594726,3.14774029594726,277.147740295947,276,0,3,0,144.251999999979,23.5920000000042,16,"[[[""img/mask49.png""],[""img/mask67.png""],[""img/mask61.png""]]]","","[1,2,5]","color",86,1
"","","","","","html-keyboard-response",97,476480,"0.0-10.0-0.39","558943fafdf99b5ccd435cb3","62ffb23f2636bd43a6cd2f50","62ffbdeca750e67504589226",2621,"Wow! You've completed 40 out of 240 trials! </p> <p>  </p><p> Take a quick break, then press any key when you're ready to continue.","enter","","",NaN,NaN,NaN,NaN,NaN,NaN,NaN,NaN,NaN,NaN,NaN,NaN,"","","","fixation",NaN,1
"","","","","","continuous-colorCM7",98,481250,"0.0-10.0-1.39-0.39","558943fafdf99b5ccd435cb3","62ffb23f2636bd43a6cd2f50","62ffbdeca750e67504589226",1530,"","","[3,4,5]","[80,18,316]",80,275,307.059268106841,307.059268106841,32.0592681068408,32,0,3,0,143.593999999983,7.93400000000838,16,"[[[""img/mask12.png""],[""img/mask28.png""],[""img/mask34.png""]]]","","[3,4,5]","color",275,1
"","","","","","html-keyboard-response",99,481759,"0.0-10.0-0.40","558943fafdf99b5ccd435cb3","62ffb23f2636bd43a6cd2f50","62ffbdeca750e67504589226",NaN,"","null","","",NaN,NaN,NaN,NaN,NaN,NaN,NaN,NaN,NaN,NaN,NaN,NaN,"","","","fixation",NaN,1
"","","","","","continuous-colorCM7",100,486970,"0.0-10.0-1.40-0.40","558943fafdf99b5ccd435cb3","62ffb23f2636bd43a6cd2f50","62ffbdeca750e67504589226",1617,"","","[3,4,1]","[315,125,356]",315,233,NaN,NaN,NaN,219,0,3,0,150.70199999999,0,0,"[[[""img/mask71.png""],[""img/mask91.png""],[""img/mask98.png""]]]","","[3,4,1]","color",233,1
"","","","","","html-keyboard-response",101,487470,"0.0-10.0-0.41","558943fafdf99b5ccd435cb3","62ffb23f2636bd43a6cd2f50","62ffbdeca750e67504589226",NaN,"","null","","",NaN,NaN,NaN,NaN,NaN,NaN,NaN,NaN,NaN,NaN,NaN,NaN,"","","","fixation",NaN,1
"","","","","","continuous-colorCM7",102,494154,"0.0-10.0-1.41-0.41","558943fafdf99b5ccd435cb3","62ffb23f2636bd43a6cd2f50","62ffbdeca750e67504589226",2534,"","","[7,6,4]","[328,283,245]",328,24,133.527960995539,133.527960995539,109.527960995539,107,0,3,0,144.118000000017,22.4579999999842,16,"[[[""img/mask20.png""],[""img/mask2.png""],[""img/mask33.png""]]]","","[7,6,4]","color",24,1
"","","","","","html-keyboard-response",103,494655,"0.0-10.0-0.42","558943fafdf99b5ccd435cb3","62ffb23f2636bd43a6cd2f50","62ffbdeca750e67504589226",NaN,"","null","","",NaN,NaN,NaN,NaN,NaN,NaN,NaN,NaN,NaN,NaN,NaN,NaN,"","","","fixation",NaN,1
"","","","","","continuous-colorCM7",104,498338,"0.0-10.0-1.42-0.42","558943fafdf99b5ccd435cb3","62ffb23f2636bd43a6cd2f50","62ffbdeca750e67504589226",1569,"","","[4,0,7,5,3]","[184,248,14,124,328]",184,185,3.88492542547357,3.88492542547357,178.884925425474,177,0,5,0,144.912000000011,8.25199999997858,16,"[[[""img/mask2.png""],[""img/mask98.png""],[""img/mask3.png""],[""img/mask14.png""],[""img/mask68.png""]]]","","[4,0,7,5,3]","color",185,1
"","","","","","html-keyboard-response",105,498839,"0.0-10.0-0.43","558943fafdf99b5ccd435cb3","62ffb23f2636bd43a6cd2f50","62ffbdeca750e67504589226",NaN,"","null","","",NaN,NaN,NaN,NaN,NaN,NaN,NaN,NaN,NaN,NaN,NaN,NaN,"","","","fixation",NaN,1
"","","","","","continuous-colorCM7",106,503130,"0.0-10.0-1.43-0.43","558943fafdf99b5ccd435cb3","62ffb23f2636bd43a6cd2f50","62ffbdeca750e67504589226",2028,"","","[6,1,3]","[52,125,187]",52,52,288.911748743701,288.911748743701,236.911748743701,237,0,3,0,144.071999999986,23.4120000000112,16,"[[[""img/mask63.png""],[""img/mask29.png""],[""img/mask64.png""]]]","","[6,1,3]","color",52,1
"","","","","","html-keyboard-response",107,503633,"0.0-10.0-0.44","558943fafdf99b5ccd435cb3","62ffb23f2636bd43a6cd2f50","62ffbdeca750e67504589226",NaN,"","null","","",NaN,NaN,NaN,NaN,NaN,NaN,NaN,NaN,NaN,NaN,NaN,NaN,"","","","fixation",NaN,1
"","","","","","continuous-colorCM7",108,510946,"0.0-10.0-1.44-0.44","558943fafdf99b5ccd435cb3","62ffb23f2636bd43a6cd2f50","62ffbdeca750e67504589226",4527,"","","[7,6,3]","[70,112,322]",70,45,63.2867528626792,63.2867528626792,18.2867528626792,15,0,3,0,144.526000000013,150.86599999998,150,"[[[""img/mask68.png""],[""img/mask35.png""],[""img/mask74.png""]]]","","[7,6,3]","color",45,1
"","","","","","html-keyboard-response",109,511450,"0.0-10.0-0.45","558943fafdf99b5ccd435cb3","62ffb23f2636bd43a6cd2f50","62ffbdeca750e67504589226",NaN,"","null","","",NaN,NaN,NaN,NaN,NaN,NaN,NaN,NaN,NaN,NaN,NaN,NaN,"","","","fixation",NaN,1
"","","","","","continuous-colorCM7",110,515658,"0.0-10.0-1.45-0.45","558943fafdf99b5ccd435cb3","62ffb23f2636bd43a6cd2f50","62ffbdeca750e67504589226",1840,"","","[3,2,5]","[260,12,337]",260,273,286.033279781005,286.033279781005,13.0332797810053,15,0,3,0,156.229999999981,0,0,"[[[""img/mask6.png""],[""img/mask83.png""],[""img/mask89.png""]]]","","[3,2,5]","color",273,1
"","","","","","html-keyboard-response",111,516170,"0.0-10.0-0.46","558943fafdf99b5ccd435cb3","62ffb23f2636bd43a6cd2f50","62ffbdeca750e67504589226",NaN,"","null","","",NaN,NaN,NaN,NaN,NaN,NaN,NaN,NaN,NaN,NaN,NaN,NaN,"","","","fixation",NaN,1
"","","","","","continuous-colorCM7",112,520962,"0.0-10.0-1.46-0.46","558943fafdf99b5ccd435cb3","62ffb23f2636bd43a6cd2f50","62ffbdeca750e67504589226",2176,"","","[7,0,1]","[56,217,123]",56,0,207.418486063642,207.418486063642,207.418486063642,206,0,3,0,157.697999999975,0,0,"[[[""img/mask12.png""],[""img/mask96.png""],[""img/mask97.png""]]]","","[7,0,1]","color",0,1
"","","","","","html-keyboard-response",113,521463,"0.0-10.0-0.47","558943fafdf99b5ccd435cb3","62ffb23f2636bd43a6cd2f50","62ffbdeca750e67504589226",NaN,"","null","","",NaN,NaN,NaN,NaN,NaN,NaN,NaN,NaN,NaN,NaN,NaN,NaN,"","","","fixation",NaN,1
"","","","","","continuous-colorCM7",114,526778,"0.0-10.0-1.47-0.47","558943fafdf99b5ccd435cb3","62ffb23f2636bd43a6cd2f50","62ffbdeca750e67504589226",3042,"","","[6]","[209]",209,274,127.993160171897,127.993160171897,213.993160171897,211,0,1,0,143.5,11.8399999999674,16,"[[[""img/mask56.png""]]]","","[6]","color",274,1
"","","","","","html-keyboard-response",115,527279,"0.0-10.0-0.48","558943fafdf99b5ccd435cb3","62ffb23f2636bd43a6cd2f50","62ffbdeca750e67504589226",NaN,"","null","","",NaN,NaN,NaN,NaN,NaN,NaN,NaN,NaN,NaN,NaN,NaN,NaN,"","","","fixation",NaN,1
"","","","","","continuous-colorCM7",116,531602,"0.0-10.0-1.48-0.48","558943fafdf99b5ccd435cb3","62ffb23f2636bd43a6cd2f50","62ffbdeca750e67504589226",2001,"","","[5,7,0]","[178,259,32]",178,99,95.9691292163836,95.9691292163836,356.969129216384,354,0,3,0,143.93200000003,22.2719999999972,16,"[[[""img/mask38.png""],[""img/mask75.png""],[""img/mask33.png""]]]","","[5,7,0]","color",99,1
"","","","","","html-keyboard-response",117,532102,"0.0-10.0-0.49","558943fafdf99b5ccd435cb3","62ffb23f2636bd43a6cd2f50","62ffbdeca750e67504589226",NaN,"","null","","",NaN,NaN,NaN,NaN,NaN,NaN,NaN,NaN,NaN,NaN,NaN,NaN,"","","","fixation",NaN,1
"","","","","","continuous-colorCM7",118,537554,"0.0-10.0-1.49-0.49","558943fafdf99b5ccd435cb3","62ffb23f2636bd43a6cd2f50","62ffbdeca750e67504589226",2435,"","","[0]","[174]",174,182,236.183518033529,236.183518033529,54.1835180335291,54,0,1,0,144.378000000026,13.7179999999935,16,"[[[""img/mask37.png""]]]","","[0]","color",182,1
"","","","","","html-keyboard-response",119,538054,"0.0-10.0-0.50","558943fafdf99b5ccd435cb3","62ffb23f2636bd43a6cd2f50","62ffbdeca750e67504589226",NaN,"","null","","",NaN,NaN,NaN,NaN,NaN,NaN,NaN,NaN,NaN,NaN,NaN,NaN,"","","","fixation",NaN,1
"","","","","","continuous-colorCM7",120,544722,"0.0-10.0-1.50-0.50","558943fafdf99b5ccd435cb3","62ffb23f2636bd43a6cd2f50","62ffbdeca750e67504589226",2588,"","","[2,0,1,6,3]","[313,19,50,225,127]",313,207,224.457690884993,224.457690884993,17.4576908849926,17,0,5,0,144.763999999966,154.10400000005,150,"[[[""img/mask73.png""],[""img/mask85.png""],[""img/mask34.png""],[""img/mask22.png""],[""img/mask82.png""]]]","","[2,0,1,6,3]","color",207,1
"","","","","","html-keyboard-response",121,545224,"0.0-10.0-0.51","558943fafdf99b5ccd435cb3","62ffb23f2636bd43a6cd2f50","62ffbdeca750e67504589226",NaN,"","null","","",NaN,NaN,NaN,NaN,NaN,NaN,NaN,NaN,NaN,NaN,NaN,NaN,"","","","fixation",NaN,1
"","","","","","continuous-colorCM7",122,549642,"0.0-10.0-1.51-0.51","558943fafdf99b5ccd435cb3","62ffb23f2636bd43a6cd2f50","62ffbdeca750e67504589226",1992,"","","[5,4,1]","[341,296,133]",341,145,323.253869163238,323.253869163238,178.253869163238,178,0,3,0,144.209999999963,89.5500000000466,83,"[[[""img/mask61.png""],[""img/mask65.png""],[""img/mask97.png""]]]","","[5,4,1]","color",145,1
"","","","","","html-keyboard-response",123,550146,"0.0-10.0-0.52","558943fafdf99b5ccd435cb3","62ffb23f2636bd43a6cd2f50","62ffbdeca750e67504589226",NaN,"","null","","",NaN,NaN,NaN,NaN,NaN,NaN,NaN,NaN,NaN,NaN,NaN,NaN,"","","","fixation",NaN,1
"","","","","","continuous-colorCM7",124,556706,"0.0-10.0-1.52-0.52","558943fafdf99b5ccd435cb3","62ffb23f2636bd43a6cd2f50","62ffbdeca750e67504589226",3523,"","","[1,2,5]","[54,181,112]",54,253,98.7961515081926,98.7961515081926,205.796151508193,202,0,3,0,144.322000000044,81.6620000000112,83,"[[[""img/mask91.png""],[""img/mask60.png""],[""img/mask40.png""]]]","","[1,2,5]","color",253,1
"","","","","","html-keyboard-response",125,557207,"0.0-10.0-0.53","558943fafdf99b5ccd435cb3","62ffb23f2636bd43a6cd2f50","62ffbdeca750e67504589226",NaN,"","null","","",NaN,NaN,NaN,NaN,NaN,NaN,NaN,NaN,NaN,NaN,NaN,NaN,"","","","fixation",NaN,1
"","","","","","continuous-colorCM7",126,564314,"0.0-10.0-1.53-0.53","558943fafdf99b5ccd435cb3","62ffb23f2636bd43a6cd2f50","62ffbdeca750e67504589226",4381,"","","[5]","[33]",33,217,226.302484369668,226.302484369668,9.30248436966835,8,0,1,0,154.052000000025,0,0,"[[[""img/mask30.png""]]]","","[5]","color",217,1
"","","","","","html-keyboard-response",127,564814,"0.0-10.0-0.54","558943fafdf99b5ccd435cb3","62ffb23f2636bd43a6cd2f50","62ffbdeca750e67504589226",NaN,"","null","","",NaN,NaN,NaN,NaN,NaN,NaN,NaN,NaN,NaN,NaN,NaN,NaN,"","","","fixation",NaN,1
"","","","","","continuous-colorCM7",128,571274,"0.0-10.0-1.54-0.54","558943fafdf99b5ccd435cb3","62ffb23f2636bd43a6cd2f50","62ffbdeca750e67504589226",2589,"","","[4,1,0,7,3]","[142,0,228,114,68]",142,284,271.135430575967,271.135430575967,347.135430575967,347,0,5,0,143.702000000048,0,0,"[[[""img/mask31.png""],[""img/mask19.png""],[""img/mask9.png""],[""img/mask97.png""],[""img/mask15.png""]]]","","[4,1,0,7,3]","color",284,1
"","","","","","html-keyboard-response",129,571775,"0.0-10.0-0.55","558943fafdf99b5ccd435cb3","62ffb23f2636bd43a6cd2f50","62ffbdeca750e67504589226",NaN,"","null","","",NaN,NaN,NaN,NaN,NaN,NaN,NaN,NaN,NaN,NaN,NaN,NaN,"","","","fixation",NaN,1
"","","","","","continuous-colorCM7",130,580412,"0.0-10.0-1.55-0.55","558943fafdf99b5ccd435cb3","62ffb23f2636bd43a6cd2f50","62ffbdeca750e67504589226",2028,"","","[1,2,6,3,5]","[330,110,196,275,38]",330,156,23.7793277046819,23.7793277046819,227.779327704682,228,0,5,0,158.314000000013,0,0,"[[[""img/mask51.png""],[""img/mask2.png""],[""img/mask49.png""],[""img/mask4.png""],[""img/mask4.png""]]]","","[1,2,6,3,5]","color",156,1
"","","","","","html-keyboard-response",131,580914,"0.0-10.0-0.56","558943fafdf99b5ccd435cb3","62ffb23f2636bd43a6cd2f50","62ffbdeca750e67504589226",NaN,"","null","","",NaN,NaN,NaN,NaN,NaN,NaN,NaN,NaN,NaN,NaN,NaN,NaN,"","","","fixation",NaN,1
"","","","","","continuous-colorCM7",132,585706,"0.0-10.0-1.56-0.56","558943fafdf99b5ccd435cb3","62ffb23f2636bd43a6cd2f50","62ffbdeca750e67504589226",2140,"","","[1]","[234]",234,91,309.165413257409,309.165413257409,218.165413257409,218,0,1,0,143.439999999944,156.780000000028,150,"[[[""img/mask38.png""]]]","","[1]","color",91,1
"","","","","","html-keyboard-response",133,586207,"0.0-10.0-0.57","558943fafdf99b5ccd435cb3","62ffb23f2636bd43a6cd2f50","62ffbdeca750e67504589226",NaN,"","null","","",NaN,NaN,NaN,NaN,NaN,NaN,NaN,NaN,NaN,NaN,NaN,NaN,"","","","fixation",NaN,1
"","","","","","continuous-colorCM7",134,590594,"0.0-10.0-1.57-0.57","558943fafdf99b5ccd435cb3","62ffb23f2636bd43a6cd2f50","62ffbdeca750e67504589226",1945,"","","[5]","[290]",290,296,319.219070760971,319.219070760971,23.2190707609706,23,0,1,0,143.569999999949,22.9100000000326,16,"[[[""img/mask35.png""]]]","","[5]","color",296,1
"","","","","","html-keyboard-response",135,591097,"0.0-10.0-0.58","558943fafdf99b5ccd435cb3","62ffb23f2636bd43a6cd2f50","62ffbdeca750e67504589226",NaN,"","null","","",NaN,NaN,NaN,NaN,NaN,NaN,NaN,NaN,NaN,NaN,NaN,NaN,"","","","fixation",NaN,1
"","","","","","continuous-colorCM7",136,595453,"0.0-10.0-1.58-0.58","558943fafdf99b5ccd435cb3","62ffb23f2636bd43a6cd2f50","62ffbdeca750e67504589226",2186,"","","[7,5,6,1,3]","[328,261,224,41,68]",328,287,117.367225092708,117.367225092708,190.367225092708,187,0,5,0,143.052000000025,8.39199999999255,16,"[[[""img/mask63.png""],[""img/mask61.png""],[""img/mask74.png""],[""img/mask27.png""],[""img/mask73.png""]]]","","[7,5,6,1,3]","color",287,1
"","","","","","html-keyboard-response",137,597713,"0.0-10.0-0.59","558943fafdf99b5ccd435cb3","62ffb23f2636bd43a6cd2f50","62ffbdeca750e67504589226",2249,"Wow! You've completed 60 out of 240 trials! </p> <p>  </p><p> Take a quick break, then press any key when you're ready to continue.","enter","","",NaN,NaN,NaN,NaN,NaN,NaN,NaN,NaN,NaN,NaN,NaN,NaN,"","","","fixation",NaN,1
"","","","","","continuous-colorCM7",138,605170,"0.0-10.0-1.59-0.59","558943fafdf99b5ccd435cb3","62ffb23f2636bd43a6cd2f50","62ffbdeca750e67504589226",4438,"","","[4]","[15]",15,7,9.83158031631991,9.83158031631991,2.83158031631991,1,0,1,0,155.420000000042,0,0,"[[[""img/mask80.png""]]]","","[4]","color",7,1
"","","","","","html-keyboard-response",139,605671,"0.0-10.0-0.60","558943fafdf99b5ccd435cb3","62ffb23f2636bd43a6cd2f50","62ffbdeca750e67504589226",NaN,"","null","","",NaN,NaN,NaN,NaN,NaN,NaN,NaN,NaN,NaN,NaN,NaN,NaN,"","","","fixation",NaN,1
"","","","","","continuous-colorCM7",140,612666,"0.0-10.0-1.60-0.60","558943fafdf99b5ccd435cb3","62ffb23f2636bd43a6cd2f50","62ffbdeca750e67504589226",2785,"","","[0]","[238]",238,109,350.309801688753,350.309801688753,241.309801688753,240,0,1,0,144.054000000004,89.3939999999711,83,"[[[""img/mask52.png""]]]","","[0]","color",109,1
"","","","","","html-keyboard-response",141,613167,"0.0-10.0-0.61","558943fafdf99b5ccd435cb3","62ffb23f2636bd43a6cd2f50","62ffbdeca750e67504589226",NaN,"","null","","",NaN,NaN,NaN,NaN,NaN,NaN,NaN,NaN,NaN,NaN,NaN,NaN,"","","","fixation",NaN,1
"","","","","","continuous-colorCM7",142,619547,"0.0-10.0-1.61-0.61","558943fafdf99b5ccd435cb3","62ffb23f2636bd43a6cd2f50","62ffbdeca750e67504589226",3566,"","","[7,2,6,4,0]","[181,28,132,329,357]",181,341,46.2278007990315,46.2278007990315,65.2278007990315,62,0,5,0,144.810000000056,90.1500000000233,83,"[[[""img/mask40.png""],[""img/mask70.png""],[""img/mask45.png""],[""img/mask97.png""],[""img/mask38.png""]]]","","[7,2,6,4,0]","color",341,1
"","","","","","html-keyboard-response",143,620047,"0.0-10.0-0.62","558943fafdf99b5ccd435cb3","62ffb23f2636bd43a6cd2f50","62ffbdeca750e67504589226",NaN,"","null","","",NaN,NaN,NaN,NaN,NaN,NaN,NaN,NaN,NaN,NaN,NaN,NaN,"","","","fixation",NaN,1
"","","","","","continuous-colorCM7",144,626661,"0.0-10.0-1.62-0.62","558943fafdf99b5ccd435cb3","62ffb23f2636bd43a6cd2f50","62ffbdeca750e67504589226",1961,"","","[0,1,2]","[73,296,166]",73,72,283.550275341438,283.550275341438,211.550275341438,212,0,3,0,144.128000000026,89.4679999999935,83,"[[[""img/mask92.png""],[""img/mask1.png""],[""img/mask92.png""]]]","","[0,1,2]","color",72,1
"","","","","","html-keyboard-response",145,627163,"0.0-10.0-0.63","558943fafdf99b5ccd435cb3","62ffb23f2636bd43a6cd2f50","62ffbdeca750e67504589226",NaN,"","null","","",NaN,NaN,NaN,NaN,NaN,NaN,NaN,NaN,NaN,NaN,NaN,NaN,"","","","fixation",NaN,1
"","","","","","continuous-colorCM7",146,631298,"0.0-10.0-1.63-0.63","558943fafdf99b5ccd435cb3","62ffb23f2636bd43a6cd2f50","62ffbdeca750e67504589226",1650,"","","[5,1,4]","[284,20,250]",284,203,219.222314511392,219.222314511392,16.2223145113925,17,0,3,0,153.930000000051,0,0,"[[[""img/mask15.png""],[""img/mask17.png""],[""img/mask76.png""]]]","","[5,1,4]","color",203,1
"","","","","","html-keyboard-response",147,631810,"0.0-10.0-0.64","558943fafdf99b5ccd435cb3","62ffb23f2636bd43a6cd2f50","62ffbdeca750e67504589226",NaN,"","null","","",NaN,NaN,NaN,NaN,NaN,NaN,NaN,NaN,NaN,NaN,NaN,NaN,"","","","fixation",NaN,1
"","","","","","continuous-colorCM7",148,637250,"0.0-10.0-1.64-0.64","558943fafdf99b5ccd435cb3","62ffb23f2636bd43a6cd2f50","62ffbdeca750e67504589226",2936,"","","[4,0,5]","[127,264,316]",127,268,67.1889550749714,67.1889550749714,159.188955074971,157,0,3,0,144.410000000033,16.75,16,"[[[""img/mask26.png""],[""img/mask48.png""],[""img/mask20.png""]]]","","[4,0,5]","color",268,1
"","","","","","html-keyboard-response",149,637763,"0.0-10.0-0.65","558943fafdf99b5ccd435cb3","62ffb23f2636bd43a6cd2f50","62ffbdeca750e67504589226",NaN,"","null","","",NaN,NaN,NaN,NaN,NaN,NaN,NaN,NaN,NaN,NaN,NaN,NaN,"","","","fixation",NaN,1
"","","","","","continuous-colorCM7",150,642274,"0.0-10.0-1.65-0.65","558943fafdf99b5ccd435cb3","62ffb23f2636bd43a6cd2f50","62ffbdeca750e67504589226",1977,"","","[0]","[278]",278,283,284.141116657956,284.141116657956,1.14111665795616,1,0,1,0,142.503999999957,0,0,"[[[""img/mask45.png""]]]","","[0]","color",283,1
"","","","","","html-keyboard-response",151,642774,"0.0-10.0-0.66","558943fafdf99b5ccd435cb3","62ffb23f2636bd43a6cd2f50","62ffbdeca750e67504589226",NaN,"","null","","",NaN,NaN,NaN,NaN,NaN,NaN,NaN,NaN,NaN,NaN,NaN,NaN,"","","","fixation",NaN,1
"","","","","","continuous-colorCM7",152,651874,"0.0-10.0-1.66-0.66","558943fafdf99b5ccd435cb3","62ffb23f2636bd43a6cd2f50","62ffbdeca750e67504589226",6661,"","","[1,2,3]","[209,53,345]",209,129,83.6119400407639,83.6119400407639,314.611940040764,311,0,3,0,144.974000000046,0,0,"[[[""img/mask84.png""],[""img/mask8.png""],[""img/mask81.png""]]]","","[1,2,3]","color",129,1
"","","","","","html-keyboard-response",153,652382,"0.0-10.0-0.67","558943fafdf99b5ccd435cb3","62ffb23f2636bd43a6cd2f50","62ffbdeca750e67504589226",NaN,"","null","","",NaN,NaN,NaN,NaN,NaN,NaN,NaN,NaN,NaN,NaN,NaN,NaN,"","","","fixation",NaN,1
"","","","","","continuous-colorCM7",154,658540,"0.0-10.0-1.67-0.67","558943fafdf99b5ccd435cb3","62ffb23f2636bd43a6cd2f50","62ffbdeca750e67504589226",3193,"","","[5]","[190]",190,118,156.144361009458,156.144361009458,38.1443610094582,37,0,1,0,142.902000000002,0,0,"[[[""img/mask55.png""]]]","","[5]","color",118,1
"","","","","","html-keyboard-response",155,659041,"0.0-10.0-0.68","558943fafdf99b5ccd435cb3","62ffb23f2636bd43a6cd2f50","62ffbdeca750e67504589226",NaN,"","null","","",NaN,NaN,NaN,NaN,NaN,NaN,NaN,NaN,NaN,NaN,NaN,NaN,"","","","fixation",NaN,1
"","","","","","continuous-colorCM7",156,665754,"0.0-10.0-1.68-0.68","558943fafdf99b5ccd435cb3","62ffb23f2636bd43a6cd2f50","62ffbdeca750e67504589226",4242,"","","[0,1,6,7,4]","[154,356,19,106,206]",154,14,18.3535961067582,18.3535961067582,4.35359610675816,3,0,5,0,144.322000000044,0,0,"[[[""img/mask85.png""],[""img/mask47.png""],[""img/mask6.png""],[""img/mask98.png""],[""img/mask71.png""]]]","","[0,1,6,7,4]","color",14,1
"","","","","","html-keyboard-response",157,666269,"0.0-10.0-0.69","558943fafdf99b5ccd435cb3","62ffb23f2636bd43a6cd2f50","62ffbdeca750e67504589226",NaN,"","null","","",NaN,NaN,NaN,NaN,NaN,NaN,NaN,NaN,NaN,NaN,NaN,NaN,"","","","fixation",NaN,1
"","","","","","continuous-colorCM7",158,671386,"0.0-10.0-1.69-0.69","558943fafdf99b5ccd435cb3","62ffb23f2636bd43a6cd2f50","62ffbdeca750e67504589226",2340,"","","[2,7,4]","[50,302,213]",50,339,330.022916825153,330.022916825153,351.022916825153,350,0,3,0,143.35400000005,145.694000000018,150,"[[[""img/mask38.png""],[""img/mask45.png""],[""img/mask18.png""]]]","","[2,7,4]","color",339,1
"","","","","","html-keyboard-response",159,671887,"0.0-10.0-0.70","558943fafdf99b5ccd435cb3","62ffb23f2636bd43a6cd2f50","62ffbdeca750e67504589226",NaN,"","null","","",NaN,NaN,NaN,NaN,NaN,NaN,NaN,NaN,NaN,NaN,NaN,NaN,"","","","fixation",NaN,1
"","","","","","continuous-colorCM7",160,676923,"0.0-10.0-1.70-0.70","558943fafdf99b5ccd435cb3","62ffb23f2636bd43a6cd2f50","62ffbdeca750e67504589226",2294,"","","[3,4,0,2,1]","[159,72,184,315,348]",159,50,302.972780638218,302.972780638218,252.972780638218,253,0,5,0,144.464000000036,149.804000000004,150,"[[[""img/mask58.png""],[""img/mask89.png""],[""img/mask64.png""],[""img/mask59.png""],[""img/mask96.png""]]]","","[3,4,0,2,1]","color",50,1
"","","","","","html-keyboard-response",161,677430,"0.0-10.0-0.71","558943fafdf99b5ccd435cb3","62ffb23f2636bd43a6cd2f50","62ffbdeca750e67504589226",NaN,"","null","","",NaN,NaN,NaN,NaN,NaN,NaN,NaN,NaN,NaN,NaN,NaN,NaN,"","","","fixation",NaN,1
"","","","","","continuous-colorCM7",162,682539,"0.0-10.0-1.71-0.71","558943fafdf99b5ccd435cb3","62ffb23f2636bd43a6cd2f50","62ffbdeca750e67504589226",2344,"","","[2]","[5]",5,73,79.1641161557855,79.1641161557855,6.16411615578545,5,0,1,0,144.908000000054,148.248000000021,150,"[[[""img/mask36.png""]]]","","[2]","color",73,1
"","","","","","html-keyboard-response",163,683043,"0.0-10.0-0.72","558943fafdf99b5ccd435cb3","62ffb23f2636bd43a6cd2f50","62ffbdeca750e67504589226",NaN,"","null","","",NaN,NaN,NaN,NaN,NaN,NaN,NaN,NaN,NaN,NaN,NaN,NaN,"","","","fixation",NaN,1
"","","","","","continuous-colorCM7",164,687834,"0.0-10.0-1.72-0.72","558943fafdf99b5ccd435cb3","62ffb23f2636bd43a6cd2f50","62ffbdeca750e67504589226",2306,"","","[3]","[248]",248,223,7.38702801042093,7.38702801042093,144.387028010421,142,0,1,0,144.028000000049,89.3680000000168,83,"[[[""img/mask73.png""]]]","","[3]","color",223,1
"","","","","","html-keyboard-response",165,688335,"0.0-10.0-0.73","558943fafdf99b5ccd435cb3","62ffb23f2636bd43a6cd2f50","62ffbdeca750e67504589226",NaN,"","null","","",NaN,NaN,NaN,NaN,NaN,NaN,NaN,NaN,NaN,NaN,NaN,NaN,"","","","fixation",NaN,1
"","","","","","continuous-colorCM7",166,693611,"0.0-10.0-1.73-0.73","558943fafdf99b5ccd435cb3","62ffb23f2636bd43a6cd2f50","62ffbdeca750e67504589226",2214,"","","[2,0,7]","[134,306,209]",134,18,336.405559742216,336.405559742216,318.405559742216,318,0,3,0,142.459999999963,0,0,"[[[""img/mask71.png""],[""img/mask55.png""],[""img/mask87.png""]]]","","[2,0,7]","color",18,1
"","","","","","html-keyboard-response",167,694120,"0.0-10.0-0.74","558943fafdf99b5ccd435cb3","62ffb23f2636bd43a6cd2f50","62ffbdeca750e67504589226",NaN,"","null","","",NaN,NaN,NaN,NaN,NaN,NaN,NaN,NaN,NaN,NaN,NaN,NaN,"","","","fixation",NaN,1
"","","","","","continuous-colorCM7",168,699298,"0.0-10.0-1.74-0.74","558943fafdf99b5ccd435cb3","62ffb23f2636bd43a6cd2f50","62ffbdeca750e67504589226",2736,"","","[7,4,6]","[121,312,69]",121,318,99.3887366523144,99.3887366523144,141.388736652314,138,0,3,0,144.920000000042,0,0,"[[[""img/mask19.png""],[""img/mask60.png""],[""img/mask4.png""]]]","","[7,4,6]","color",318,1
"","","","","","html-keyboard-response",169,699814,"0.0-10.0-0.75","558943fafdf99b5ccd435cb3","62ffb23f2636bd43a6cd2f50","62ffbdeca750e67504589226",NaN,"","null","","",NaN,NaN,NaN,NaN,NaN,NaN,NaN,NaN,NaN,NaN,NaN,NaN,"","","","fixation",NaN,1
"","","","","","continuous-colorCM7",170,706522,"0.0-10.0-1.75-0.75","558943fafdf99b5ccd435cb3","62ffb23f2636bd43a6cd2f50","62ffbdeca750e67504589226",1995,"","","[2,6,4,7,5]","[359,244,73,269,46]",359,348,3.17327324880396,3.17327324880396,15.173273248804,13,0,5,0,144.26800000004,22.6080000000075,16,"[[[""img/mask22.png""],[""img/mask63.png""],[""img/mask30.png""],[""img/mask16.png""],[""img/mask52.png""]]]","","[2,6,4,7,5]","color",348,1
"","","","","","html-keyboard-response",171,707025,"0.0-10.0-0.76","558943fafdf99b5ccd435cb3","62ffb23f2636bd43a6cd2f50","62ffbdeca750e67504589226",NaN,"","null","","",NaN,NaN,NaN,NaN,NaN,NaN,NaN,NaN,NaN,NaN,NaN,NaN,"","","","fixation",NaN,1
"","","","","","continuous-colorCM7",172,712802,"0.0-10.0-1.76-0.76","558943fafdf99b5ccd435cb3","62ffb23f2636bd43a6cd2f50","62ffbdeca750e67504589226",2856,"","","[5]","[17]",17,10,49.2145908267496,49.2145908267496,39.2145908267496,37,0,1,0,144.717999999993,81.0579999999609,83,"[[[""img/mask37.png""]]]","","[5]","color",10,1
"","","","","","html-keyboard-response",173,713303,"0.0-10.0-0.77","558943fafdf99b5ccd435cb3","62ffb23f2636bd43a6cd2f50","62ffbdeca750e67504589226",NaN,"","null","","",NaN,NaN,NaN,NaN,NaN,NaN,NaN,NaN,NaN,NaN,NaN,NaN,"","","","fixation",NaN,1
"","","","","","continuous-colorCM7",174,717938,"0.0-10.0-1.77-0.77","558943fafdf99b5ccd435cb3","62ffb23f2636bd43a6cd2f50","62ffbdeca750e67504589226",2393,"","","[6,0,1,5,4]","[214,95,281,73,40]",214,123,299.268627957775,299.268627957775,176.268627957775,176,0,5,0,144.493999999948,16.8340000000317,16,"[[[""img/mask31.png""],[""img/mask95.png""],[""img/mask5.png""],[""img/mask84.png""],[""img/mask4.png""]]]","","[6,0,1,5,4]","color",123,1
"","","","","","html-keyboard-response",175,718439,"0.0-10.0-0.78","558943fafdf99b5ccd435cb3","62ffb23f2636bd43a6cd2f50","62ffbdeca750e67504589226",NaN,"","null","","",NaN,NaN,NaN,NaN,NaN,NaN,NaN,NaN,NaN,NaN,NaN,NaN,"","","","fixation",NaN,1
"","","","","","continuous-colorCM7",176,725154,"0.0-10.0-1.78-0.78","558943fafdf99b5ccd435cb3","62ffb23f2636bd43a6cd2f50","62ffbdeca750e67504589226",2194,"","","[3]","[182]",182,132,236.425115265557,236.425115265557,104.425115265557,104,0,1,0,157.863999999943,0,0,"[[[""img/mask58.png""]]]","","[3]","color",132,1
"","","","","","html-keyboard-response",177,728984,"0.0-10.0-0.79","558943fafdf99b5ccd435cb3","62ffb23f2636bd43a6cd2f50","62ffbdeca750e67504589226",3829,"Wow! You've completed 80 out of 240 trials! </p> <p>  </p><p> Take a quick break, then press any key when you're ready to continue.","enter","","",NaN,NaN,NaN,NaN,NaN,NaN,NaN,NaN,NaN,NaN,NaN,NaN,"","","","fixation",NaN,1
"","","","","","continuous-colorCM7",178,734315,"0.0-10.0-1.79-0.79","558943fafdf99b5ccd435cb3","62ffb23f2636bd43a6cd2f50","62ffbdeca750e67504589226",1988,"","","[0,7,5]","[74,324,219]",74,114,324.789796718561,324.789796718561,210.789796718561,211,0,3,0,144.155999999959,81.4960000000428,83,"[[[""img/mask71.png""],[""img/mask34.png""],[""img/mask60.png""]]]","","[0,7,5]","color",114,1
"","","","","","html-keyboard-response",179,734815,"0.0-10.0-0.80","558943fafdf99b5ccd435cb3","62ffb23f2636bd43a6cd2f50","62ffbdeca750e67504589226",NaN,"","null","","",NaN,NaN,NaN,NaN,NaN,NaN,NaN,NaN,NaN,NaN,NaN,NaN,"","","","fixation",NaN,1
"","","","","","continuous-colorCM7",180,742274,"0.0-10.0-1.80-0.80","558943fafdf99b5ccd435cb3","62ffb23f2636bd43a6cd2f50","62ffbdeca750e67504589226",3315,"","","[7,2,0,1,4]","[24,318,85,182,106]",24,355,137.442762440983,137.442762440983,142.442762440983,140,0,5,0,143.224000000046,88.564000000013,83,"[[[""img/mask85.png""],[""img/mask52.png""],[""img/mask3.png""],[""img/mask24.png""],[""img/mask73.png""]]]","","[7,2,0,1,4]","color",355,1
"","","","","","html-keyboard-response",181,742787,"0.0-10.0-0.81","558943fafdf99b5ccd435cb3","62ffb23f2636bd43a6cd2f50","62ffbdeca750e67504589226",NaN,"","null","","",NaN,NaN,NaN,NaN,NaN,NaN,NaN,NaN,NaN,NaN,NaN,NaN,"","","","fixation",NaN,1
"","","","","","continuous-colorCM7",182,747098,"0.0-10.0-1.81-0.81","558943fafdf99b5ccd435cb3","62ffb23f2636bd43a6cd2f50","62ffbdeca750e67504589226",2056,"","","[4]","[292]",292,345,217.811049323206,217.811049323206,232.811049323206,232,0,1,0,153.314000000013,0,0,"[[[""img/mask48.png""]]]","","[4]","color",345,1
"","","","","","html-keyboard-response",183,747598,"0.0-10.0-0.82","558943fafdf99b5ccd435cb3","62ffb23f2636bd43a6cd2f50","62ffbdeca750e67504589226",NaN,"","null","","",NaN,NaN,NaN,NaN,NaN,NaN,NaN,NaN,NaN,NaN,NaN,NaN,"","","","fixation",NaN,1
"","","","","","continuous-colorCM7",184,753914,"0.0-10.0-1.82-0.82","558943fafdf99b5ccd435cb3","62ffb23f2636bd43a6cd2f50","62ffbdeca750e67504589226",3988,"","","[2,3,0]","[9,197,163]",9,352,41.2461784809526,41.2461784809526,49.2461784809526,47,0,3,0,154.452000000048,0,0,"[[[""img/mask15.png""],[""img/mask83.png""],[""img/mask76.png""]]]","","[2,3,0]","color",352,1
"","","","","","html-keyboard-response",185,754415,"0.0-10.0-0.83","558943fafdf99b5ccd435cb3","62ffb23f2636bd43a6cd2f50","62ffbdeca750e67504589226",NaN,"","null","","",NaN,NaN,NaN,NaN,NaN,NaN,NaN,NaN,NaN,NaN,NaN,NaN,"","","","fixation",NaN,1
"","","","","","continuous-colorCM7",186,759082,"0.0-10.0-1.83-0.83","558943fafdf99b5ccd435cb3","62ffb23f2636bd43a6cd2f50","62ffbdeca750e67504589226",2339,"","","[5,1,4]","[309,151,3]",309,115,188.844498002597,188.844498002597,73.8444980025969,72,0,3,0,144.84600000002,19.185999999987,16,"[[[""img/mask17.png""],[""img/mask45.png""],[""img/mask92.png""]]]","","[5,1,4]","color",115,1
"","","","","","html-keyboard-response",187,759583,"0.0-10.0-0.84","558943fafdf99b5ccd435cb3","62ffb23f2636bd43a6cd2f50","62ffbdeca750e67504589226",NaN,"","null","","",NaN,NaN,NaN,NaN,NaN,NaN,NaN,NaN,NaN,NaN,NaN,NaN,"","","","fixation",NaN,1
"","","","","","continuous-colorCM7",188,763762,"0.0-10.0-1.84-0.84","558943fafdf99b5ccd435cb3","62ffb23f2636bd43a6cd2f50","62ffbdeca750e67504589226",2170,"","","[4,3,0,1,2]","[12,301,75,255,188]",12,55,254.059120418136,254.059120418136,199.059120418136,200,0,5,0,143.652000000002,86.9919999999693,83,"[[[""img/mask68.png""],[""img/mask92.png""],[""img/mask96.png""],[""img/mask17.png""],[""img/mask77.png""]]]","","[4,3,0,1,2]","color",55,1
"","","","","","html-keyboard-response",189,764263,"0.0-10.0-0.85","558943fafdf99b5ccd435cb3","62ffb23f2636bd43a6cd2f50","62ffbdeca750e67504589226",NaN,"","null","","",NaN,NaN,NaN,NaN,NaN,NaN,NaN,NaN,NaN,NaN,NaN,NaN,"","","","fixation",NaN,1
"","","","","","continuous-colorCM7",190,771298,"0.0-10.0-1.85-0.85","558943fafdf99b5ccd435cb3","62ffb23f2636bd43a6cd2f50","62ffbdeca750e67504589226",4556,"","","[2]","[289]",289,166,95.6115563185212,95.6115563185212,289.611556318521,287,0,1,0,144.445999999996,145.785999999964,150,"[[[""img/mask76.png""]]]","","[2]","color",166,1
"","","","","","html-keyboard-response",191,771807,"0.0-10.0-0.86","558943fafdf99b5ccd435cb3","62ffb23f2636bd43a6cd2f50","62ffbdeca750e67504589226",NaN,"","null","","",NaN,NaN,NaN,NaN,NaN,NaN,NaN,NaN,NaN,NaN,NaN,NaN,"","","","fixation",NaN,1
"","","","","","continuous-colorCM7",192,778210,"0.0-10.0-1.86-0.86","558943fafdf99b5ccd435cb3","62ffb23f2636bd43a6cd2f50","62ffbdeca750e67504589226",2352,"","","[0]","[193]",193,26,237.549114734626,237.549114734626,211.549114734626,211,0,1,0,143.748000000021,86.0879999999888,83,"[[[""img/mask95.png""]]]","","[0]","color",26,1
"","","","","","html-keyboard-response",193,778712,"0.0-10.0-0.87","558943fafdf99b5ccd435cb3","62ffb23f2636bd43a6cd2f50","62ffbdeca750e67504589226",NaN,"","null","","",NaN,NaN,NaN,NaN,NaN,NaN,NaN,NaN,NaN,NaN,NaN,NaN,"","","","fixation",NaN,1
"","","","","","continuous-colorCM7",194,785674,"0.0-10.0-1.87-0.87","558943fafdf99b5ccd435cb3","62ffb23f2636bd43a6cd2f50","62ffbdeca750e67504589226",4233,"","","[0,5,3]","[200,2,142]",200,61,269.335410328604,269.335410328604,208.335410328604,208,0,3,0,144.858000000007,21.1979999999749,16,"[[[""img/mask20.png""],[""img/mask96.png""],[""img/mask33.png""]]]","","[0,5,3]","color",61,1
"","","","","","html-keyboard-response",195,786175,"0.0-10.0-0.88","558943fafdf99b5ccd435cb3","62ffb23f2636bd43a6cd2f50","62ffbdeca750e67504589226",NaN,"","null","","",NaN,NaN,NaN,NaN,NaN,NaN,NaN,NaN,NaN,NaN,NaN,NaN,"","","","fixation",NaN,1
"","","","","","continuous-colorCM7",196,791378,"0.0-10.0-1.88-0.88","558943fafdf99b5ccd435cb3","62ffb23f2636bd43a6cd2f50","62ffbdeca750e67504589226",2371,"","","[7]","[292]",292,338,12.9126189584628,12.9126189584628,34.9126189584628,33,0,1,0,155.221999999951,0,0,"[[[""img/mask80.png""]]]","","[7]","color",338,1
"","","","","","html-keyboard-response",197,791891,"0.0-10.0-0.89","558943fafdf99b5ccd435cb3","62ffb23f2636bd43a6cd2f50","62ffbdeca750e67504589226",NaN,"","null","","",NaN,NaN,NaN,NaN,NaN,NaN,NaN,NaN,NaN,NaN,NaN,NaN,"","","","fixation",NaN,1
"","","","","","continuous-colorCM7",198,797010,"0.0-10.0-1.89-0.89","558943fafdf99b5ccd435cb3","62ffb23f2636bd43a6cd2f50","62ffbdeca750e67504589226",2542,"","","[5,7,0]","[124,47,275]",124,26,296.54093934956,296.54093934956,270.54093934956,270,0,3,0,144.003999999957,22.344000000041,16,"[[[""img/mask91.png""],[""img/mask14.png""],[""img/mask31.png""]]]","","[5,7,0]","color",26,1
"","","","","","html-keyboard-response",199,797511,"0.0-10.0-0.90","558943fafdf99b5ccd435cb3","62ffb23f2636bd43a6cd2f50","62ffbdeca750e67504589226",NaN,"","null","","",NaN,NaN,NaN,NaN,NaN,NaN,NaN,NaN,NaN,NaN,NaN,NaN,"","","","fixation",NaN,1
"","","","","","continuous-colorCM7",200,801994,"0.0-10.0-1.90-0.90","558943fafdf99b5ccd435cb3","62ffb23f2636bd43a6cd2f50","62ffbdeca750e67504589226",1704,"","","[2]","[210]",210,271,114.00495279287,114.00495279287,203.00495279287,199,0,1,0,144.10400000005,90.4440000000177,83,"[[[""img/mask45.png""]]]","","[2]","color",271,1
"","","","","","html-keyboard-response",201,802506,"0.0-10.0-0.91","558943fafdf99b5ccd435cb3","62ffb23f2636bd43a6cd2f50","62ffbdeca750e67504589226",NaN,"","null","","",NaN,NaN,NaN,NaN,NaN,NaN,NaN,NaN,NaN,NaN,NaN,NaN,"","","","fixation",NaN,1
"","","","","","continuous-colorCM7",202,808450,"0.0-10.0-1.91-0.91","558943fafdf99b5ccd435cb3","62ffb23f2636bd43a6cd2f50","62ffbdeca750e67504589226",2810,"","","[2]","[14]",14,144,158.145137674517,158.145137674517,14.1451376745167,14,0,1,0,155.890000000014,0,0,"[[[""img/mask52.png""]]]","","[2]","color",144,1
"","","","","","html-keyboard-response",203,808958,"0.0-10.0-0.92","558943fafdf99b5ccd435cb3","62ffb23f2636bd43a6cd2f50","62ffbdeca750e67504589226",NaN,"","null","","",NaN,NaN,NaN,NaN,NaN,NaN,NaN,NaN,NaN,NaN,NaN,NaN,"","","","fixation",NaN,1
"","","","","","continuous-colorCM7",204,813946,"0.0-10.0-1.92-0.92","558943fafdf99b5ccd435cb3","62ffb23f2636bd43a6cd2f50","62ffbdeca750e67504589226",2440,"","","[2,6,4,3,5]","[57,234,4,339,99]",57,248,16.4369058733433,16.4369058733433,128.436905873343,126,0,5,0,144.322000000044,153.662000000011,150,"[[[""img/mask67.png""],[""img/mask3.png""],[""img/mask29.png""],[""img/mask98.png""],[""img/mask56.png""]]]","","[2,6,4,3,5]","color",248,1
"","","","","","html-keyboard-response",205,814447,"0.0-10.0-0.93","558943fafdf99b5ccd435cb3","62ffb23f2636bd43a6cd2f50","62ffbdeca750e67504589226",NaN,"","null","","",NaN,NaN,NaN,NaN,NaN,NaN,NaN,NaN,NaN,NaN,NaN,NaN,"","","","fixation",NaN,1
"","","","","","continuous-colorCM7",206,821290,"0.0-10.0-1.93-0.93","558943fafdf99b5ccd435cb3","62ffb23f2636bd43a6cd2f50","62ffbdeca750e67504589226",4550,"","","[7]","[39]",39,83,92.1921713282523,92.1921713282523,9.19217132825231,6,0,1,0,156.445999999996,0,0,"[[[""img/mask94.png""]]]","","[7]","color",83,1
"","","","","","html-keyboard-response",207,821790,"0.0-10.0-0.94","558943fafdf99b5ccd435cb3","62ffb23f2636bd43a6cd2f50","62ffbdeca750e67504589226",NaN,"","null","","",NaN,NaN,NaN,NaN,NaN,NaN,NaN,NaN,NaN,NaN,NaN,NaN,"","","","fixation",NaN,1
"","","","","","continuous-colorCM7",208,826274,"0.0-10.0-1.94-0.94","558943fafdf99b5ccd435cb3","62ffb23f2636bd43a6cd2f50","62ffbdeca750e67504589226",2151,"","","[6,7,0]","[225,197,41]",225,62,291.609502855173,291.609502855173,229.609502855173,230,0,3,0,156.484000000055,0,0,"[[[""img/mask60.png""],[""img/mask93.png""],[""img/mask40.png""]]]","","[6,7,0]","color",62,1
"","","","","","html-keyboard-response",209,826775,"0.0-10.0-0.95","558943fafdf99b5ccd435cb3","62ffb23f2636bd43a6cd2f50","62ffbdeca750e67504589226",NaN,"","null","","",NaN,NaN,NaN,NaN,NaN,NaN,NaN,NaN,NaN,NaN,NaN,NaN,"","","","fixation",NaN,1
"","","","","","continuous-colorCM7",210,831890,"0.0-10.0-1.95-0.95","558943fafdf99b5ccd435cb3","62ffb23f2636bd43a6cd2f50","62ffbdeca750e67504589226",2551,"","","[7]","[182]",182,330,7.1832471692278,7.1832471692278,37.1832471692278,36,0,1,0,144.942000000039,155.282000000007,150,"[[[""img/mask1.png""]]]","","[7]","color",330,1
"","","","","","html-keyboard-response",211,832390,"0.0-10.0-0.96","558943fafdf99b5ccd435cb3","62ffb23f2636bd43a6cd2f50","62ffbdeca750e67504589226",NaN,"","null","","",NaN,NaN,NaN,NaN,NaN,NaN,NaN,NaN,NaN,NaN,NaN,NaN,"","","","fixation",NaN,1
"","","","","","continuous-colorCM7",212,837858,"0.0-10.0-1.96-0.96","558943fafdf99b5ccd435cb3","62ffb23f2636bd43a6cd2f50","62ffbdeca750e67504589226",3101,"","","[3,1,2,4,7]","[251,116,326,79,184]",251,100,340.274410737439,340.274410737439,240.274410737439,240,0,5,0,143.391999999993,0,0,"[[[""img/mask18.png""],[""img/mask33.png""],[""img/mask95.png""],[""img/mask90.png""],[""img/mask77.png""]]]","","[3,1,2,4,7]","color",100,1
"","","","","","html-keyboard-response",213,838359,"0.0-10.0-0.97","558943fafdf99b5ccd435cb3","62ffb23f2636bd43a6cd2f50","62ffbdeca750e67504589226",NaN,"","null","","",NaN,NaN,NaN,NaN,NaN,NaN,NaN,NaN,NaN,NaN,NaN,NaN,"","","","fixation",NaN,1
"","","","","","continuous-colorCM7",214,844162,"0.0-10.0-1.97-0.97","558943fafdf99b5ccd435cb3","62ffb23f2636bd43a6cd2f50","62ffbdeca750e67504589226",2973,"","","[1]","[27]",27,93,118.343135662548,118.343135662548,25.3431356625483,23,0,1,0,144.467999999993,16.8079999999609,16,"[[[""img/mask37.png""]]]","","[1]","color",93,1
"","","","","","html-keyboard-response",215,844671,"0.0-10.0-0.98","558943fafdf99b5ccd435cb3","62ffb23f2636bd43a6cd2f50","62ffbdeca750e67504589226",NaN,"","null","","",NaN,NaN,NaN,NaN,NaN,NaN,NaN,NaN,NaN,NaN,NaN,NaN,"","","","fixation",NaN,1
"","","","","","continuous-colorCM7",216,850202,"0.0-10.0-1.98-0.98","558943fafdf99b5ccd435cb3","62ffb23f2636bd43a6cd2f50","62ffbdeca750e67504589226",2464,"","","[4]","[242]",242,27,235.332772787818,235.332772787818,208.332772787818,208,0,1,0,143.206000000006,148.545999999973,150,"[[[""img/mask8.png""]]]","","[4]","color",27,1
"","","","","","html-keyboard-response",217,853104,"0.0-10.0-0.99","558943fafdf99b5ccd435cb3","62ffb23f2636bd43a6cd2f50","62ffbdeca750e67504589226",2902,"Wow! You've completed 100 out of 240 trials! </p> <p>  </p><p> Take a quick break, then press any key when you're ready to continue.","enter","","",NaN,NaN,NaN,NaN,NaN,NaN,NaN,NaN,NaN,NaN,NaN,NaN,"","","","fixation",NaN,1
"","","","","","continuous-colorCM7",218,860098,"0.0-10.0-1.99-0.99","558943fafdf99b5ccd435cb3","62ffb23f2636bd43a6cd2f50","62ffbdeca750e67504589226",1494,"","","[0,6,1,7,3]","[321,183,260,162,130]",321,62,296.744962018411,296.744962018411,234.744962018411,235,0,5,0,150.437999999966,0,0,"[[[""img/mask32.png""],[""img/mask3.png""],[""img/mask60.png""],[""img/mask73.png""],[""img/mask7.png""]]]","","[0,6,1,7,3]","color",62,1
"","","","","","html-keyboard-response",219,860600,"0.0-10.0-0.100","558943fafdf99b5ccd435cb3","62ffb23f2636bd43a6cd2f50","62ffbdeca750e67504589226",NaN,"","null","","",NaN,NaN,NaN,NaN,NaN,NaN,NaN,NaN,NaN,NaN,NaN,NaN,"","","","fixation",NaN,1
"","","","","","continuous-colorCM7",220,865659,"0.0-10.0-1.100-0.100","558943fafdf99b5ccd435cb3","62ffb23f2636bd43a6cd2f50","62ffbdeca750e67504589226",2388,"","","[6]","[314]",314,340,15.3324145594342,15.3324145594342,35.3324145594343,33,0,1,0,141.917999999947,0,0,"[[[""img/mask67.png""]]]","","[6]","color",340,1
"","","","","","html-keyboard-response",221,866159,"0.0-10.0-0.101","558943fafdf99b5ccd435cb3","62ffb23f2636bd43a6cd2f50","62ffbdeca750e67504589226",NaN,"","null","","",NaN,NaN,NaN,NaN,NaN,NaN,NaN,NaN,NaN,NaN,NaN,NaN,"","","","fixation",NaN,1
"","","","","","continuous-colorCM7",222,871498,"0.0-10.0-1.101-0.101","558943fafdf99b5ccd435cb3","62ffb23f2636bd43a6cd2f50","62ffbdeca750e67504589226",2793,"","","[5,2,4,6,1]","[185,282,321,229,129]",185,270,218.898871564885,218.898871564885,308.898871564885,308,0,5,0,156.033999999985,0,0,"[[[""img/mask38.png""],[""img/mask32.png""],[""img/mask41.png""],[""img/mask46.png""],[""img/mask66.png""]]]","","[5,2,4,6,1]","color",270,1
"","","","","","html-keyboard-response",223,872001,"0.0-10.0-0.102","558943fafdf99b5ccd435cb3","62ffb23f2636bd43a6cd2f50","62ffbdeca750e67504589226",NaN,"","null","","",NaN,NaN,NaN,NaN,NaN,NaN,NaN,NaN,NaN,NaN,NaN,NaN,"","","","fixation",NaN,1
"","","","","","continuous-colorCM7",224,876970,"0.0-10.0-1.102-0.102","558943fafdf99b5ccd435cb3","62ffb23f2636bd43a6cd2f50","62ffbdeca750e67504589226",2666,"","","[7,3,5]","[269,182,211]",269,130,339.637209357041,339.637209357041,209.637209357041,209,0,3,0,144.810000000056,11.1500000000233,16,"[[[""img/mask63.png""],[""img/mask36.png""],[""img/mask38.png""]]]","","[7,3,5]","color",130,1
"","","","","","html-keyboard-response",225,877470,"0.0-10.0-0.103","558943fafdf99b5ccd435cb3","62ffb23f2636bd43a6cd2f50","62ffbdeca750e67504589226",NaN,"","null","","",NaN,NaN,NaN,NaN,NaN,NaN,NaN,NaN,NaN,NaN,NaN,NaN,"","","","fixation",NaN,1
"","","","","","continuous-colorCM7",226,882394,"0.0-10.0-1.103-0.103","558943fafdf99b5ccd435cb3","62ffb23f2636bd43a6cd2f50","62ffbdeca750e67504589226",2224,"","","[0,7,3,4,5]","[237,210,320,1,151]",237,310,112.114061374793,112.114061374793,162.114061374793,159,0,5,0,144.241999999969,155.582000000053,150,"[[[""img/mask97.png""],[""img/mask73.png""],[""img/mask75.png""],[""img/mask30.png""],[""img/mask30.png""]]]","","[0,7,3,4,5]","color",310,1
"","","","","","html-keyboard-response",227,882896,"0.0-10.0-0.104","558943fafdf99b5ccd435cb3","62ffb23f2636bd43a6cd2f50","62ffbdeca750e67504589226",NaN,"","null","","",NaN,NaN,NaN,NaN,NaN,NaN,NaN,NaN,NaN,NaN,NaN,NaN,"","","","fixation",NaN,1
"","","","","","continuous-colorCM7",228,887962,"0.0-10.0-1.104-0.104","558943fafdf99b5ccd435cb3","62ffb23f2636bd43a6cd2f50","62ffbdeca750e67504589226",2724,"","","[6]","[254]",254,275,318.741923952501,318.741923952501,43.741923952501,44,0,1,0,144.706000000006,11.045999999973,16,"[[[""img/mask34.png""]]]","","[6]","color",275,1
"","","","","","html-keyboard-response",229,888463,"0.0-10.0-0.105","558943fafdf99b5ccd435cb3","62ffb23f2636bd43a6cd2f50","62ffbdeca750e67504589226",NaN,"","null","","",NaN,NaN,NaN,NaN,NaN,NaN,NaN,NaN,NaN,NaN,NaN,NaN,"","","","fixation",NaN,1
"","","","","","continuous-colorCM7",230,893513,"0.0-10.0-1.105-0.105","558943fafdf99b5ccd435cb3","62ffb23f2636bd43a6cd2f50","62ffbdeca750e67504589226",2640,"","","[7,4,3]","[118,175,263]",118,195,125.67040618577,125.67040618577,290.67040618577,289,0,3,0,144.814000000013,16.1539999999804,16,"[[[""img/mask80.png""],[""img/mask87.png""],[""img/mask42.png""]]]","","[7,4,3]","color",195,1
"","","","","","html-keyboard-response",231,894024,"0.0-10.0-0.106","558943fafdf99b5ccd435cb3","62ffb23f2636bd43a6cd2f50","62ffbdeca750e67504589226",NaN,"","null","","",NaN,NaN,NaN,NaN,NaN,NaN,NaN,NaN,NaN,NaN,NaN,NaN,"","","","fixation",NaN,1
"","","","","","continuous-colorCM7",232,900058,"0.0-10.0-1.106-0.106","558943fafdf99b5ccd435cb3","62ffb23f2636bd43a6cd2f50","62ffbdeca750e67504589226",2638,"","","[7,2,5]","[229,343,195]",229,332,290.646691897572,290.646691897572,318.646691897572,319,0,3,0,144.552000000025,142.891999999993,150,"[[[""img/mask40.png""],[""img/mask9.png""],[""img/mask21.png""]]]","","[7,2,5]","color",332,1
"","","","","","html-keyboard-response",233,900561,"0.0-10.0-0.107","558943fafdf99b5ccd435cb3","62ffb23f2636bd43a6cd2f50","62ffbdeca750e67504589226",NaN,"","null","","",NaN,NaN,NaN,NaN,NaN,NaN,NaN,NaN,NaN,NaN,NaN,NaN,"","","","fixation",NaN,1
"","","","","","continuous-colorCM7",234,906899,"0.0-10.0-1.107-0.107","558943fafdf99b5ccd435cb3","62ffb23f2636bd43a6cd2f50","62ffbdeca750e67504589226",1946,"","","[4,3,5,2,1]","[32,298,128,66,99]",32,197,274.770687160436,274.770687160436,77.770687160436,78,0,5,0,144.584000000032,9.92399999999907,16,"[[[""img/mask8.png""],[""img/mask69.png""],[""img/mask95.png""],[""img/mask71.png""],[""img/mask57.png""]]]","","[4,3,5,2,1]","color",197,1
"","","","","","html-keyboard-response",235,907400,"0.0-10.0-0.108","558943fafdf99b5ccd435cb3","62ffb23f2636bd43a6cd2f50","62ffbdeca750e67504589226",NaN,"","null","","",NaN,NaN,NaN,NaN,NaN,NaN,NaN,NaN,NaN,NaN,NaN,NaN,"","","","fixation",NaN,1
"","","","","","continuous-colorCM7",236,914082,"0.0-10.0-1.108-0.108","558943fafdf99b5ccd435cb3","62ffb23f2636bd43a6cd2f50","62ffbdeca750e67504589226",2913,"","","[2,6,5]","[343,185,67]",343,271,65.6033420292885,65.6033420292885,154.603342029288,151,0,3,0,144.001999999979,150.341999999946,150,"[[[""img/mask51.png""],[""img/mask89.png""],[""img/mask94.png""]]]","","[2,6,5]","color",271,1
"","","","","","html-keyboard-response",237,914586,"0.0-10.0-0.109","558943fafdf99b5ccd435cb3","62ffb23f2636bd43a6cd2f50","62ffbdeca750e67504589226",NaN,"","null","","",NaN,NaN,NaN,NaN,NaN,NaN,NaN,NaN,NaN,NaN,NaN,NaN,"","","","fixation",NaN,1
"","","","","","continuous-colorCM7",238,919354,"0.0-10.0-1.109-0.109","558943fafdf99b5ccd435cb3","62ffb23f2636bd43a6cd2f50","62ffbdeca750e67504589226",1968,"","","[3,6,0]","[350,281,189]",350,303,293.532736283039,293.532736283039,350.532736283039,351,0,3,0,144.420000000042,145.760000000009,150,"[[[""img/mask89.png""],[""img/mask81.png""],[""img/mask17.png""]]]","","[3,6,0]","color",303,1
"","","","","","html-keyboard-response",239,919855,"0.0-10.0-0.110","558943fafdf99b5ccd435cb3","62ffb23f2636bd43a6cd2f50","62ffbdeca750e67504589226",NaN,"","null","","",NaN,NaN,NaN,NaN,NaN,NaN,NaN,NaN,NaN,NaN,NaN,NaN,"","","","fixation",NaN,1
"","","","","","continuous-colorCM7",240,925786,"0.0-10.0-1.110-0.110","558943fafdf99b5ccd435cb3","62ffb23f2636bd43a6cd2f50","62ffbdeca750e67504589226",2983,"","","[4,7,5,6,3]","[169,120,249,202,82]",169,74,278.354684789551,278.354684789551,204.354684789551,204,0,5,0,143.869999999995,12.2099999999627,16,"[[[""img/mask99.png""],[""img/mask79.png""],[""img/mask35.png""],[""img/mask85.png""],[""img/mask85.png""]]]","","[4,7,5,6,3]","color",74,1
"","","","","","html-keyboard-response",241,926286,"0.0-10.0-0.111","558943fafdf99b5ccd435cb3","62ffb23f2636bd43a6cd2f50","62ffbdeca750e67504589226",NaN,"","null","","",NaN,NaN,NaN,NaN,NaN,NaN,NaN,NaN,NaN,NaN,NaN,NaN,"","","","fixation",NaN,1
"","","","","","continuous-colorCM7",242,932834,"0.0-10.0-1.111-0.111","558943fafdf99b5ccd435cb3","62ffb23f2636bd43a6cd2f50","62ffbdeca750e67504589226",2349,"","","[7,5,0]","[52,164,121]",52,290,145.997649372944,145.997649372944,215.997649372944,213,0,3,0,144.89599999995,80.2360000000335,83,"[[[""img/mask25.png""],[""img/mask66.png""],[""img/mask9.png""]]]","","[7,5,0]","color",290,1
"","","","","","html-keyboard-response",243,933335,"0.0-10.0-0.112","558943fafdf99b5ccd435cb3","62ffb23f2636bd43a6cd2f50","62ffbdeca750e67504589226",NaN,"","null","","",NaN,NaN,NaN,NaN,NaN,NaN,NaN,NaN,NaN,NaN,NaN,NaN,"","","","fixation",NaN,1
"","","","","","continuous-colorCM7",244,937986,"0.0-10.0-1.112-0.112","558943fafdf99b5ccd435cb3","62ffb23f2636bd43a6cd2f50","62ffbdeca750e67504589226",2401,"","","[7]","[26]",26,198,236.727833312113,236.727833312113,38.7278333121128,38,0,1,0,144.692000000039,21.0320000000065,16,"[[[""img/mask92.png""]]]","","[7]","color",198,1
"","","","","","html-keyboard-response",245,938487,"0.0-10.0-0.113","558943fafdf99b5ccd435cb3","62ffb23f2636bd43a6cd2f50","62ffbdeca750e67504589226",NaN,"","null","","",NaN,NaN,NaN,NaN,NaN,NaN,NaN,NaN,NaN,NaN,NaN,NaN,"","","","fixation",NaN,1
"","","","","","continuous-colorCM7",246,943394,"0.0-10.0-1.113-0.113","558943fafdf99b5ccd435cb3","62ffb23f2636bd43a6cd2f50","62ffbdeca750e67504589226",2493,"","","[6,4,2,5,1]","[260,12,330,49,84]",260,14,145.434285208398,145.434285208398,131.434285208398,129,0,5,0,144.14599999995,77.4860000000335,83,"[[[""img/mask72.png""],[""img/mask85.png""],[""img/mask39.png""],[""img/mask88.png""],[""img/mask68.png""]]]","","[6,4,2,5,1]","color",14,1
"","","","","","html-keyboard-response",247,943899,"0.0-10.0-0.114","558943fafdf99b5ccd435cb3","62ffb23f2636bd43a6cd2f50","62ffbdeca750e67504589226",NaN,"","null","","",NaN,NaN,NaN,NaN,NaN,NaN,NaN,NaN,NaN,NaN,NaN,NaN,"","","","fixation",NaN,1
"","","","","","continuous-colorCM7",248,951146,"0.0-10.0-1.114-0.114","558943fafdf99b5ccd435cb3","62ffb23f2636bd43a6cd2f50","62ffbdeca750e67504589226",4462,"","","[2]","[103]",103,321,73.0636957667164,73.0636957667164,112.063695766716,109,0,1,0,144.248000000021,76.5879999999888,83,"[[[""img/mask46.png""]]]","","[2]","color",321,1
"","","","","","html-keyboard-response",249,951649,"0.0-10.0-0.115","558943fafdf99b5ccd435cb3","62ffb23f2636bd43a6cd2f50","62ffbdeca750e67504589226",NaN,"","null","","",NaN,NaN,NaN,NaN,NaN,NaN,NaN,NaN,NaN,NaN,NaN,NaN,"","","","fixation",NaN,1
"","","","","","continuous-colorCM7",250,959211,"0.0-10.0-1.115-0.115","558943fafdf99b5ccd435cb3","62ffb23f2636bd43a6cd2f50","62ffbdeca750e67504589226",4593,"","","[7,1,5,0,2]","[72,234,328,103,21]",72,79,96.2083218741976,96.2083218741976,17.2083218741976,14,0,5,0,144.263999999966,23.6040000000503,16,"[[[""img/mask50.png""],[""img/mask74.png""],[""img/mask80.png""],[""img/mask36.png""],[""img/mask2.png""]]]","","[7,1,5,0,2]","color",79,1
"","","","","","html-keyboard-response",251,959715,"0.0-10.0-0.116","558943fafdf99b5ccd435cb3","62ffb23f2636bd43a6cd2f50","62ffbdeca750e67504589226",NaN,"","null","","",NaN,NaN,NaN,NaN,NaN,NaN,NaN,NaN,NaN,NaN,NaN,NaN,"","","","fixation",NaN,1
"","","","","","continuous-colorCM7",252,965690,"0.0-10.0-1.116-0.116","558943fafdf99b5ccd435cb3","62ffb23f2636bd43a6cd2f50","62ffbdeca750e67504589226",3722,"","","[2,3,1,4,7]","[291,123,223,29,2]",291,135,10.407241649437,10.407241649437,235.407241649437,234,0,5,0,155.969999999972,0,0,"[[[""img/mask68.png""],[""img/mask19.png""],[""img/mask28.png""],[""img/mask25.png""],[""img/mask32.png""]]]","","[2,3,1,4,7]","color",135,1
"","","","","","html-keyboard-response",253,966191,"0.0-10.0-0.117","558943fafdf99b5ccd435cb3","62ffb23f2636bd43a6cd2f50","62ffbdeca750e67504589226",NaN,"","null","","",NaN,NaN,NaN,NaN,NaN,NaN,NaN,NaN,NaN,NaN,NaN,NaN,"","","","fixation",NaN,1
"","","","","","continuous-colorCM7",254,971859,"0.0-10.0-1.117-0.117","558943fafdf99b5ccd435cb3","62ffb23f2636bd43a6cd2f50","62ffbdeca750e67504589226",3209,"","","[7,0,3,1,2]","[133,321,287,157,228]",133,166,284.1921771115,284.1921771115,118.1921771115,118,0,5,0,155.035999999964,0,0,"[[[""img/mask65.png""],[""img/mask2.png""],[""img/mask68.png""],[""img/mask19.png""],[""img/mask100.png""]]]","","[7,0,3,1,2]","color",166,1
"","","","","","html-keyboard-response",255,972361,"0.0-10.0-0.118","558943fafdf99b5ccd435cb3","62ffb23f2636bd43a6cd2f50","62ffbdeca750e67504589226",NaN,"","null","","",NaN,NaN,NaN,NaN,NaN,NaN,NaN,NaN,NaN,NaN,NaN,NaN,"","","","fixation",NaN,1
"","","","","","continuous-colorCM7",256,977555,"0.0-10.0-1.118-0.118","558943fafdf99b5ccd435cb3","62ffb23f2636bd43a6cd2f50","62ffbdeca750e67504589226",2855,"","","[2,1,6,5,3]","[287,23,229,194,118]",287,180,54.7786678632964,54.7786678632964,234.778667863296,232,0,5,0,144.793999999994,156.133999999962,150,"[[[""img/mask13.png""],[""img/mask46.png""],[""img/mask29.png""],[""img/mask84.png""],[""img/mask41.png""]]]","","[2,1,6,5,3]","color",180,1
"","","","","","html-keyboard-response",257,979937,"0.0-10.0-0.119","558943fafdf99b5ccd435cb3","62ffb23f2636bd43a6cd2f50","62ffbdeca750e67504589226",2380,"Wow! You've completed 120 out of 240 trials! </p> <p>  </p><p> Take a quick break, then press any key when you're ready to continue.","enter","","",NaN,NaN,NaN,NaN,NaN,NaN,NaN,NaN,NaN,NaN,NaN,NaN,"","","","fixation",NaN,1
"","","","","","continuous-colorCM7",258,1002466,"0.0-10.0-1.119-0.119","558943fafdf99b5ccd435cb3","62ffb23f2636bd43a6cd2f50","62ffbdeca750e67504589226",1800,"","","[6,4,0]","[65,335,303]",65,237,71.4554714171894,71.4554714171894,194.455471417189,191,0,3,0,144.42200000002,22.7619999999879,16,"[[[""img/mask31.png""],[""img/mask74.png""],[""img/mask86.png""]]]","","[6,4,0]","color",237,1
"","","","","","html-keyboard-response",259,1002967,"0.0-10.0-0.120","558943fafdf99b5ccd435cb3","62ffb23f2636bd43a6cd2f50","62ffbdeca750e67504589226",NaN,"","null","","",NaN,NaN,NaN,NaN,NaN,NaN,NaN,NaN,NaN,NaN,NaN,NaN,"","","","fixation",NaN,1
"","","","","","continuous-colorCM7",260,1009907,"0.0-10.0-1.120-0.120","558943fafdf99b5ccd435cb3","62ffb23f2636bd43a6cd2f50","62ffbdeca750e67504589226",4590,"","","[2,3,4]","[315,93,257]",315,26,105.460226027463,105.460226027463,79.4602260274635,76,0,3,0,156.236000000034,0,0,"[[[""img/mask91.png""],[""img/mask60.png""],[""img/mask91.png""]]]","","[2,3,4]","color",26,1
"","","","","","html-keyboard-response",261,1010413,"0.0-10.0-0.121","558943fafdf99b5ccd435cb3","62ffb23f2636bd43a6cd2f50","62ffbdeca750e67504589226",NaN,"","null","","",NaN,NaN,NaN,NaN,NaN,NaN,NaN,NaN,NaN,NaN,NaN,NaN,"","","","fixation",NaN,1
"","","","","","continuous-colorCM7",262,1014658,"0.0-10.0-1.121-0.121","558943fafdf99b5ccd435cb3","62ffb23f2636bd43a6cd2f50","62ffbdeca750e67504589226",1860,"","","[3,6,0]","[152,334,35]",152,32,285.187313406672,285.187313406672,253.187313406672,253,0,3,0,144.270000000019,23.609999999986,16,"[[[""img/mask39.png""],[""img/mask96.png""],[""img/mask87.png""]]]","","[3,6,0]","color",32,1
"","","","","","html-keyboard-response",263,1015163,"0.0-10.0-0.122","558943fafdf99b5ccd435cb3","62ffb23f2636bd43a6cd2f50","62ffbdeca750e67504589226",NaN,"","null","","",NaN,NaN,NaN,NaN,NaN,NaN,NaN,NaN,NaN,NaN,NaN,NaN,"","","","fixation",NaN,1
"","","","","","continuous-colorCM7",264,1020020,"0.0-10.0-1.122-0.122","558943fafdf99b5ccd435cb3","62ffb23f2636bd43a6cd2f50","62ffbdeca750e67504589226",2403,"","","[1,7,5]","[340,260,11]",340,292,24.093025077937,24.093025077937,92.093025077937,90,0,3,0,156.743999999948,0,0,"[[[""img/mask70.png""],[""img/mask15.png""],[""img/mask45.png""]]]","","[1,7,5]","color",292,1
"","","","","","html-keyboard-response",265,1020546,"0.0-10.0-0.123","558943fafdf99b5ccd435cb3","62ffb23f2636bd43a6cd2f50","62ffbdeca750e67504589226",NaN,"","null","","",NaN,NaN,NaN,NaN,NaN,NaN,NaN,NaN,NaN,NaN,NaN,NaN,"","","","fixation",NaN,1
"","","","","","continuous-colorCM7",266,1026450,"0.0-10.0-1.123-0.123","558943fafdf99b5ccd435cb3","62ffb23f2636bd43a6cd2f50","62ffbdeca750e67504589226",3453,"","","[5]","[51]",51,65,78.7940565305746,78.7940565305746,13.7940565305746,10,0,1,0,154.861999999965,0,0,"[[[""img/mask15.png""]]]","","[5]","color",65,1
"","","","","","html-keyboard-response",267,1026965,"0.0-10.0-0.124","558943fafdf99b5ccd435cb3","62ffb23f2636bd43a6cd2f50","62ffbdeca750e67504589226",NaN,"","null","","",NaN,NaN,NaN,NaN,NaN,NaN,NaN,NaN,NaN,NaN,NaN,NaN,"","","","fixation",NaN,1
"","","","","","continuous-colorCM7",268,1031394,"0.0-10.0-1.124-0.124","558943fafdf99b5ccd435cb3","62ffb23f2636bd43a6cd2f50","62ffbdeca750e67504589226",1645,"","","[4]","[253]",253,176,186.937377242464,186.937377242464,10.9373772424638,9,0,1,0,143.591999999946,22.9320000000298,16,"[[[""img/mask94.png""]]]","","[4]","color",176,1
"","","","","","html-keyboard-response",269,1031897,"0.0-10.0-0.125","558943fafdf99b5ccd435cb3","62ffb23f2636bd43a6cd2f50","62ffbdeca750e67504589226",NaN,"","null","","",NaN,NaN,NaN,NaN,NaN,NaN,NaN,NaN,NaN,NaN,NaN,NaN,"","","","fixation",NaN,1
"","","","","","continuous-colorCM7",270,1036338,"0.0-10.0-1.125-0.125","558943fafdf99b5ccd435cb3","62ffb23f2636bd43a6cd2f50","62ffbdeca750e67504589226",2340,"","","[7]","[141]",141,95,359.683747375812,359.683747375812,264.683747375812,263,0,1,0,144.42200000002,154.761999999988,150,"[[[""img/mask2.png""]]]","","[7]","color",95,1
"","","","","","html-keyboard-response",271,1036839,"0.0-10.0-0.126","558943fafdf99b5ccd435cb3","62ffb23f2636bd43a6cd2f50","62ffbdeca750e67504589226",NaN,"","null","","",NaN,NaN,NaN,NaN,NaN,NaN,NaN,NaN,NaN,NaN,NaN,NaN,"","","","fixation",NaN,1
"","","","","","continuous-colorCM7",272,1041603,"0.0-10.0-1.126-0.126","558943fafdf99b5ccd435cb3","62ffb23f2636bd43a6cd2f50","62ffbdeca750e67504589226",2222,"","","[7]","[38]",38,141,4.79525706946067,4.79525706946067,223.795257069461,222,0,1,0,144.540000000037,142.880000000005,150,"[[[""img/mask89.png""]]]","","[7]","color",141,1
"","","","","","html-keyboard-response",273,1042107,"0.0-10.0-0.127","558943fafdf99b5ccd435cb3","62ffb23f2636bd43a6cd2f50","62ffbdeca750e67504589226",NaN,"","null","","",NaN,NaN,NaN,NaN,NaN,NaN,NaN,NaN,NaN,NaN,NaN,NaN,"","","","fixation",NaN,1
"","","","","","continuous-colorCM7",274,1048050,"0.0-10.0-1.127-0.127","558943fafdf99b5ccd435cb3","62ffb23f2636bd43a6cd2f50","62ffbdeca750e67504589226",2502,"","","[5,6,2,0,3]","[341,32,75,249,207]",341,345,246.145119065562,246.145119065562,261.145119065562,263,0,5,0,144.959999999963,76.3000000000466,83,"[[[""img/mask39.png""],[""img/mask88.png""],[""img/mask71.png""],[""img/mask7.png""],[""img/mask24.png""]]]","","[5,6,2,0,3]","color",345,1
"","","","","","html-keyboard-response",275,1048551,"0.0-10.0-0.128","558943fafdf99b5ccd435cb3","62ffb23f2636bd43a6cd2f50","62ffbdeca750e67504589226",NaN,"","null","","",NaN,NaN,NaN,NaN,NaN,NaN,NaN,NaN,NaN,NaN,NaN,NaN,"","","","fixation",NaN,1
"","","","","","continuous-colorCM7",276,1053314,"0.0-10.0-1.128-0.128","558943fafdf99b5ccd435cb3","62ffb23f2636bd43a6cd2f50","62ffbdeca750e67504589226",2199,"","","[6]","[163]",163,66,291.085271144414,291.085271144414,225.085271144414,225,0,1,0,144.404000000097,15.7439999999478,16,"[[[""img/mask54.png""]]]","","[6]","color",66,1
"","","","","","html-keyboard-response",277,1053825,"0.0-10.0-0.129","558943fafdf99b5ccd435cb3","62ffb23f2636bd43a6cd2f50","62ffbdeca750e67504589226",NaN,"","null","","",NaN,NaN,NaN,NaN,NaN,NaN,NaN,NaN,NaN,NaN,NaN,NaN,"","","","fixation",NaN,1
"","","","","","continuous-colorCM7",278,1060346,"0.0-10.0-1.129-0.129","558943fafdf99b5ccd435cb3","62ffb23f2636bd43a6cd2f50","62ffbdeca750e67504589226",2933,"","","[4,1,3]","[195,16,39]",195,190,252.802587432263,252.802587432263,62.8025874322627,63,0,3,0,143.152000000002,21.4920000000857,16,"[[[""img/mask34.png""],[""img/mask43.png""],[""img/mask6.png""]]]","","[4,1,3]","color",190,1
"","","","","","html-keyboard-response",279,1060847,"0.0-10.0-0.130","558943fafdf99b5ccd435cb3","62ffb23f2636bd43a6cd2f50","62ffbdeca750e67504589226",NaN,"","null","","",NaN,NaN,NaN,NaN,NaN,NaN,NaN,NaN,NaN,NaN,NaN,NaN,"","","","fixation",NaN,1
"","","","","","continuous-colorCM7",280,1067266,"0.0-10.0-1.130-0.130","558943fafdf99b5ccd435cb3","62ffb23f2636bd43a6cd2f50","62ffbdeca750e67504589226",2736,"","","[3,0,5]","[335,217,144]",335,283,351.68950358195,351.68950358195,68.6895035819495,67,0,3,0,144.533999999985,76.8740000000689,83,"[[[""img/mask24.png""],[""img/mask54.png""],[""img/mask78.png""]]]","","[3,0,5]","color",283,1
"","","","","","html-keyboard-response",281,1067766,"0.0-10.0-0.131","558943fafdf99b5ccd435cb3","62ffb23f2636bd43a6cd2f50","62ffbdeca750e67504589226",NaN,"","null","","",NaN,NaN,NaN,NaN,NaN,NaN,NaN,NaN,NaN,NaN,NaN,NaN,"","","","fixation",NaN,1
"","","","","","continuous-colorCM7",282,1072394,"0.0-10.0-1.131-0.131","558943fafdf99b5ccd435cb3","62ffb23f2636bd43a6cd2f50","62ffbdeca750e67504589226",2115,"","","[5,2,4,7,3]","[29,164,311,251,107]",29,51,191.047069066504,191.047069066504,140.047069066504,138,0,5,0,144.304000000004,76.6440000000875,83,"[[[""img/mask54.png""],[""img/mask39.png""],[""img/mask58.png""],[""img/mask12.png""],[""img/mask52.png""]]]","","[5,2,4,7,3]","color",51,1
"","","","","","html-keyboard-response",283,1072895,"0.0-10.0-0.132","558943fafdf99b5ccd435cb3","62ffb23f2636bd43a6cd2f50","62ffbdeca750e67504589226",NaN,"","null","","",NaN,NaN,NaN,NaN,NaN,NaN,NaN,NaN,NaN,NaN,NaN,NaN,"","","","fixation",NaN,1
"","","","","","continuous-colorCM7",284,1078050,"0.0-10.0-1.132-0.132","558943fafdf99b5ccd435cb3","62ffb23f2636bd43a6cd2f50","62ffbdeca750e67504589226",2421,"","","[3]","[30]",30,331,82.602456424465,82.602456424465,111.602456424465,108,0,1,0,156.090000000084,0,0,"[[[""img/mask21.png""]]]","","[3]","color",331,1
"","","","","","html-keyboard-response",285,1078565,"0.0-10.0-0.133","558943fafdf99b5ccd435cb3","62ffb23f2636bd43a6cd2f50","62ffbdeca750e67504589226",NaN,"","null","","",NaN,NaN,NaN,NaN,NaN,NaN,NaN,NaN,NaN,NaN,NaN,NaN,"","","","fixation",NaN,1
"","","","","","continuous-colorCM7",286,1083618,"0.0-10.0-1.133-0.133","558943fafdf99b5ccd435cb3","62ffb23f2636bd43a6cd2f50","62ffbdeca750e67504589226",1889,"","","[5]","[285]",285,181,13.2630625901337,13.2630625901337,192.263062590134,190,0,1,0,142.845999999903,77.185999999987,83,"[[[""img/mask51.png""]]]","","[5]","color",181,1
"","","","","","html-keyboard-response",287,1084120,"0.0-10.0-0.134","558943fafdf99b5ccd435cb3","62ffb23f2636bd43a6cd2f50","62ffbdeca750e67504589226",NaN,"","null","","",NaN,NaN,NaN,NaN,NaN,NaN,NaN,NaN,NaN,NaN,NaN,NaN,"","","","fixation",NaN,1
"","","","","","continuous-colorCM7",288,1088731,"0.0-10.0-1.134-0.134","558943fafdf99b5ccd435cb3","62ffb23f2636bd43a6cd2f50","62ffbdeca750e67504589226",2185,"","","[4]","[292]",292,281,296.744962018411,296.744962018411,15.7449620184109,15,0,1,0,144.320000000065,0,0,"[[[""img/mask33.png""]]]","","[4]","color",281,1
"","","","","","html-keyboard-response",289,1089232,"0.0-10.0-0.135","558943fafdf99b5ccd435cb3","62ffb23f2636bd43a6cd2f50","62ffbdeca750e67504589226",NaN,"","null","","",NaN,NaN,NaN,NaN,NaN,NaN,NaN,NaN,NaN,NaN,NaN,NaN,"","","","fixation",NaN,1
"","","","","","continuous-colorCM7",290,1094611,"0.0-10.0-1.135-0.135","558943fafdf99b5ccd435cb3","62ffb23f2636bd43a6cd2f50","62ffbdeca750e67504589226",1998,"","","[1,4,6,3,5]","[176,21,64,121,359]",176,104,56.8238621173182,56.8238621173182,312.823862117318,309,0,5,0,144.743999999948,77.0840000000317,83,"[[[""img/mask22.png""],[""img/mask80.png""],[""img/mask52.png""],[""img/mask75.png""],[""img/mask72.png""]]]","","[1,4,6,3,5]","color",104,1
"","","","","","html-keyboard-response",291,1095112,"0.0-10.0-0.136","558943fafdf99b5ccd435cb3","62ffb23f2636bd43a6cd2f50","62ffbdeca750e67504589226",NaN,"","null","","",NaN,NaN,NaN,NaN,NaN,NaN,NaN,NaN,NaN,NaN,NaN,NaN,"","","","fixation",NaN,1
"","","","","","continuous-colorCM7",292,1099579,"0.0-10.0-1.136-0.136","558943fafdf99b5ccd435cb3","62ffb23f2636bd43a6cd2f50","62ffbdeca750e67504589226",2167,"","","[2]","[335]",335,113,150.459291307403,150.459291307403,37.4592913074027,36,0,1,0,144.551999999909,85.8919999999925,83,"[[[""img/mask93.png""]]]","","[2]","color",113,1
"","","","","","html-keyboard-response",293,1100080,"0.0-10.0-0.137","558943fafdf99b5ccd435cb3","62ffb23f2636bd43a6cd2f50","62ffbdeca750e67504589226",NaN,"","null","","",NaN,NaN,NaN,NaN,NaN,NaN,NaN,NaN,NaN,NaN,NaN,NaN,"","","","fixation",NaN,1
"","","","","","continuous-colorCM7",294,1105723,"0.0-10.0-1.137-0.137","558943fafdf99b5ccd435cb3","62ffb23f2636bd43a6cd2f50","62ffbdeca750e67504589226",3040,"","","[0,4,7,2,1]","[322,264,93,184,230]",322,282,251.464972150419,251.464972150419,329.464972150419,329,0,5,0,144.007999999914,23.3479999999981,16,"[[[""img/mask60.png""],[""img/mask9.png""],[""img/mask83.png""],[""img/mask13.png""],[""img/mask35.png""]]]","","[0,4,7,2,1]","color",282,1
"","","","","","html-keyboard-response",295,1106224,"0.0-10.0-0.138","558943fafdf99b5ccd435cb3","62ffb23f2636bd43a6cd2f50","62ffbdeca750e67504589226",NaN,"","null","","",NaN,NaN,NaN,NaN,NaN,NaN,NaN,NaN,NaN,NaN,NaN,NaN,"","","","fixation",NaN,1
"","","","","","continuous-colorCM7",296,1111251,"0.0-10.0-1.138-0.138","558943fafdf99b5ccd435cb3","62ffb23f2636bd43a6cd2f50","62ffbdeca750e67504589226",2173,"","","[3,4,1,7,6]","[108,300,208,168,55]",108,98,257.904172984177,257.904172984177,159.904172984177,160,0,5,0,144.752000000095,84.091999999946,83,"[[[""img/mask27.png""],[""img/mask52.png""],[""img/mask45.png""],[""img/mask14.png""],[""img/mask66.png""]]]","","[3,4,1,7,6]","color",98,1
"","","","","","html-keyboard-response",297,1115872,"0.0-10.0-0.139","558943fafdf99b5ccd435cb3","62ffb23f2636bd43a6cd2f50","62ffbdeca750e67504589226",4621,"Wow! You've completed 140 out of 240 trials! </p> <p>  </p><p> Take a quick break, then press any key when you're ready to continue.","enter","","",NaN,NaN,NaN,NaN,NaN,NaN,NaN,NaN,NaN,NaN,NaN,NaN,"","","","fixation",NaN,1
"","","","","","continuous-colorCM7",298,1121803,"0.0-10.0-1.139-0.139","558943fafdf99b5ccd435cb3","62ffb23f2636bd43a6cd2f50","62ffbdeca750e67504589226",2209,"","","[6,2,5,4,1]","[32,152,311,248,129]",32,350,192.297964515002,192.297964515002,202.297964515002,201,0,5,0,143.997999999905,144.337999999989,150,"[[[""img/mask32.png""],[""img/mask56.png""],[""img/mask98.png""],[""img/mask57.png""],[""img/mask46.png""]]]","","[6,2,5,4,1]","color",350,1
"","","","","","html-keyboard-response",299,1122303,"0.0-10.0-0.140","558943fafdf99b5ccd435cb3","62ffb23f2636bd43a6cd2f50","62ffbdeca750e67504589226",NaN,"","null","","",NaN,NaN,NaN,NaN,NaN,NaN,NaN,NaN,NaN,NaN,NaN,NaN,"","","","fixation",NaN,1
"","","","","","continuous-colorCM7",300,1128219,"0.0-10.0-1.140-0.140","558943fafdf99b5ccd435cb3","62ffb23f2636bd43a6cd2f50","62ffbdeca750e67504589226",2974,"","","[6,5,3,7,4]","[21,157,243,182,350]",21,170,258.072827533834,258.072827533834,88.0728275338343,88,0,5,0,144.772000000114,24.1119999999646,16,"[[[""img/mask84.png""],[""img/mask77.png""],[""img/mask12.png""],[""img/mask6.png""],[""img/mask39.png""]]]","","[6,5,3,7,4]","color",170,1
"","","","","","html-keyboard-response",301,1128729,"0.0-10.0-0.141","558943fafdf99b5ccd435cb3","62ffb23f2636bd43a6cd2f50","62ffbdeca750e67504589226",NaN,"","null","","",NaN,NaN,NaN,NaN,NaN,NaN,NaN,NaN,NaN,NaN,NaN,NaN,"","","","fixation",NaN,1
"","","","","","continuous-colorCM7",302,1134525,"0.0-10.0-1.141-0.141","558943fafdf99b5ccd435cb3","62ffb23f2636bd43a6cd2f50","62ffbdeca750e67504589226",2414,"","","[2]","[14]",14,56,66.1301751391229,66.1301751391229,10.1301751391229,7,0,1,0,144.164000000106,0,0,"[[[""img/mask11.png""]]]","","[2]","color",56,1
"","","","","","html-keyboard-response",303,1135029,"0.0-10.0-0.142","558943fafdf99b5ccd435cb3","62ffb23f2636bd43a6cd2f50","62ffbdeca750e67504589226",NaN,"","null","","",NaN,NaN,NaN,NaN,NaN,NaN,NaN,NaN,NaN,NaN,NaN,NaN,"","","","fixation",NaN,1
"","","","","","continuous-colorCM7",304,1140515,"0.0-10.0-1.142-0.142","558943fafdf99b5ccd435cb3","62ffb23f2636bd43a6cd2f50","62ffbdeca750e67504589226",2337,"","","[3,4,1,5,0]","[321,112,216,134,276]",321,289,249.232656314176,249.232656314176,320.232656314176,321,0,5,0,144.587999999989,152.928000000073,150,"[[[""img/mask6.png""],[""img/mask49.png""],[""img/mask30.png""],[""img/mask66.png""],[""img/mask97.png""]]]","","[3,4,1,5,0]","color",289,1
"","","","","","html-keyboard-response",305,1141016,"0.0-10.0-0.143","558943fafdf99b5ccd435cb3","62ffb23f2636bd43a6cd2f50","62ffbdeca750e67504589226",NaN,"","null","","",NaN,NaN,NaN,NaN,NaN,NaN,NaN,NaN,NaN,NaN,NaN,NaN,"","","","fixation",NaN,1
"","","","","","continuous-colorCM7",306,1146371,"0.0-10.0-1.143-0.143","558943fafdf99b5ccd435cb3","62ffb23f2636bd43a6cd2f50","62ffbdeca750e67504589226",2077,"","","[7,5,4,6,0]","[134,162,320,255,0]",134,199,99.9700776319454,99.9700776319454,260.970077631945,258,0,5,0,143.010000000009,89.3500000000931,83,"[[[""img/mask96.png""],[""img/mask20.png""],[""img/mask86.png""],[""img/mask74.png""],[""img/mask92.png""]]]","","[7,5,4,6,0]","color",199,1
"","","","","","html-keyboard-response",307,1146872,"0.0-10.0-0.144","558943fafdf99b5ccd435cb3","62ffb23f2636bd43a6cd2f50","62ffbdeca750e67504589226",NaN,"","null","","",NaN,NaN,NaN,NaN,NaN,NaN,NaN,NaN,NaN,NaN,NaN,NaN,"","","","fixation",NaN,1
"","","","","","continuous-colorCM7",308,1152571,"0.0-10.0-1.144-0.144","558943fafdf99b5ccd435cb3","62ffb23f2636bd43a6cd2f50","62ffbdeca750e67504589226",2961,"","","[4]","[243]",243,227,54.6762774064558,54.6762774064558,187.676277406456,185,0,1,0,144.46399999992,157.804000000004,150,"[[[""img/mask52.png""]]]","","[4]","color",227,1
"","","","","","html-keyboard-response",309,1153074,"0.0-10.0-0.145","558943fafdf99b5ccd435cb3","62ffb23f2636bd43a6cd2f50","62ffbdeca750e67504589226",NaN,"","null","","",NaN,NaN,NaN,NaN,NaN,NaN,NaN,NaN,NaN,NaN,NaN,NaN,"","","","fixation",NaN,1
"","","","","","continuous-colorCM7",310,1158747,"0.0-10.0-1.145-0.145","558943fafdf99b5ccd435cb3","62ffb23f2636bd43a6cd2f50","62ffbdeca750e67504589226",1954,"","","[0]","[204]",204,46,235.432767715352,235.432767715352,189.432767715352,189,0,1,0,144.510000000009,150.850000000093,150,"[[[""img/mask32.png""]]]","","[0]","color",46,1
"","","","","","html-keyboard-response",311,1159248,"0.0-10.0-0.146","558943fafdf99b5ccd435cb3","62ffb23f2636bd43a6cd2f50","62ffbdeca750e67504589226",NaN,"","null","","",NaN,NaN,NaN,NaN,NaN,NaN,NaN,NaN,NaN,NaN,NaN,NaN,"","","","fixation",NaN,1
"","","","","","continuous-colorCM7",312,1163539,"0.0-10.0-1.146-0.146","558943fafdf99b5ccd435cb3","62ffb23f2636bd43a6cd2f50","62ffbdeca750e67504589226",1562,"","","[0]","[157]",157,142,349.078248743714,349.078248743714,207.078248743714,206,0,1,0,144.63599999994,154.976000000024,150,"[[[""img/mask65.png""]]]","","[0]","color",142,1
"","","","","","html-keyboard-response",313,1164052,"0.0-10.0-0.147","558943fafdf99b5ccd435cb3","62ffb23f2636bd43a6cd2f50","62ffbdeca750e67504589226",NaN,"","null","","",NaN,NaN,NaN,NaN,NaN,NaN,NaN,NaN,NaN,NaN,NaN,NaN,"","","","fixation",NaN,1
"","","","","","continuous-colorCM7",314,1169243,"0.0-10.0-1.147-0.147","558943fafdf99b5ccd435cb3","62ffb23f2636bd43a6cd2f50","62ffbdeca750e67504589226",2400,"","","[1,5,6,4,2]","[146,325,260,285,85]",146,120,15.8592419765824,15.8592419765824,255.859241976582,254,0,5,0,143.108000000007,86.4480000000913,83,"[[[""img/mask40.png""],[""img/mask67.png""],[""img/mask97.png""],[""img/mask95.png""],[""img/mask35.png""]]]","","[1,5,6,4,2]","color",120,1
"","","","","","html-keyboard-response",315,1169744,"0.0-10.0-0.148","558943fafdf99b5ccd435cb3","62ffb23f2636bd43a6cd2f50","62ffbdeca750e67504589226",NaN,"","null","","",NaN,NaN,NaN,NaN,NaN,NaN,NaN,NaN,NaN,NaN,NaN,NaN,"","","","fixation",NaN,1
"","","","","","continuous-colorCM7",316,1175540,"0.0-10.0-1.148-0.148","558943fafdf99b5ccd435cb3","62ffb23f2636bd43a6cd2f50","62ffbdeca750e67504589226",2996,"","","[7,1,6]","[359,153,95]",359,54,115.10493499586,115.10493499586,61.1049349958598,58,0,3,0,143.879999999888,8.21999999997206,16,"[[[""img/mask72.png""],[""img/mask5.png""],[""img/mask100.png""]]]","","[7,1,6]","color",54,1
